
 ------------------------------------------------------------
     normal          Raman Scattering Plot
 ------------------------------------------------------------
 Excitation wavelength  631.48 nm
 Convolution lineshape is lorentzian  
 FWHM   20.00  1/cm
 ------------------------------------------------------------
 ------------------------------------------------------------
 # of frequencies :     3
 ------------------------------------------------------------
 #  freq [ 1/cm]  S [Ang**4/amu]
 ------------------------------------------------------------
   3  1021.03       76.0932
 ------------------------------------------------------------
   -58.86    0.5764E-05
   -57.72    0.5776E-05
   -56.57    0.5788E-05
   -55.43    0.5801E-05
   -54.29    0.5813E-05
   -53.15    0.5825E-05
   -52.00    0.5838E-05
   -50.86    0.5850E-05
   -49.72    0.5863E-05
   -48.58    0.5875E-05
   -47.44    0.5888E-05
   -46.29    0.5900E-05
   -45.15    0.5913E-05
   -44.01    0.5926E-05
   -42.87    0.5938E-05
   -41.73    0.5951E-05
   -40.58    0.5964E-05
   -39.44    0.5977E-05
   -38.30    0.5990E-05
   -37.16    0.6003E-05
   -36.01    0.6016E-05
   -34.87    0.6029E-05
   -33.73    0.6042E-05
   -32.59    0.6055E-05
   -31.45    0.6068E-05
   -30.30    0.6081E-05
   -29.16    0.6094E-05
   -28.02    0.6108E-05
   -26.88    0.6121E-05
   -25.73    0.6134E-05
   -24.59    0.6148E-05
   -23.45    0.6161E-05
   -22.31    0.6175E-05
   -21.17    0.6188E-05
   -20.02    0.6202E-05
   -18.88    0.6215E-05
   -17.74    0.6229E-05
   -16.60    0.6243E-05
   -15.46    0.6257E-05
   -14.31    0.6270E-05
   -13.17    0.6284E-05
   -12.03    0.6298E-05
   -10.89    0.6312E-05
    -9.74    0.6326E-05
    -8.60    0.6340E-05
    -7.46    0.6354E-05
    -6.32    0.6368E-05
    -5.18    0.6383E-05
    -4.03    0.6397E-05
    -2.89    0.6411E-05
    -1.75    0.6425E-05
    -0.61    0.6440E-05
     0.54    0.6454E-05
     1.68    0.6469E-05
     2.82    0.6483E-05
     3.96    0.6498E-05
     5.10    0.6512E-05
     6.25    0.6527E-05
     7.39    0.6542E-05
     8.53    0.6557E-05
     9.67    0.6571E-05
    10.81    0.6586E-05
    11.96    0.6601E-05
    13.10    0.6616E-05
    14.24    0.6631E-05
    15.38    0.6646E-05
    16.53    0.6661E-05
    17.67    0.6677E-05
    18.81    0.6692E-05
    19.95    0.6707E-05
    21.09    0.6722E-05
    22.24    0.6738E-05
    23.38    0.6753E-05
    24.52    0.6769E-05
    25.66    0.6784E-05
    26.81    0.6800E-05
    27.95    0.6815E-05
    29.09    0.6831E-05
    30.23    0.6847E-05
    31.37    0.6863E-05
    32.52    0.6879E-05
    33.66    0.6894E-05
    34.80    0.6910E-05
    35.94    0.6927E-05
    37.08    0.6943E-05
    38.23    0.6959E-05
    39.37    0.6975E-05
    40.51    0.6991E-05
    41.65    0.7008E-05
    42.80    0.7024E-05
    43.94    0.7040E-05
    45.08    0.7057E-05
    46.22    0.7073E-05
    47.36    0.7090E-05
    48.51    0.7107E-05
    49.65    0.7123E-05
    50.79    0.7140E-05
    51.93    0.7157E-05
    53.08    0.7174E-05
    54.22    0.7191E-05
    55.36    0.7208E-05
    56.50    0.7225E-05
    57.64    0.7242E-05
    58.79    0.7259E-05
    59.93    0.7276E-05
    61.07    0.7294E-05
    62.21    0.7311E-05
    63.35    0.7329E-05
    64.50    0.7346E-05
    65.64    0.7364E-05
    66.78    0.7381E-05
    67.92    0.7399E-05
    69.07    0.7417E-05
    70.21    0.7435E-05
    71.35    0.7453E-05
    72.49    0.7471E-05
    73.63    0.7489E-05
    74.78    0.7507E-05
    75.92    0.7525E-05
    77.06    0.7543E-05
    78.20    0.7561E-05
    79.35    0.7580E-05
    80.49    0.7598E-05
    81.63    0.7617E-05
    82.77    0.7635E-05
    83.91    0.7654E-05
    85.06    0.7672E-05
    86.20    0.7691E-05
    87.34    0.7710E-05
    88.48    0.7729E-05
    89.62    0.7748E-05
    90.77    0.7767E-05
    91.91    0.7786E-05
    93.05    0.7805E-05
    94.19    0.7824E-05
    95.34    0.7844E-05
    96.48    0.7863E-05
    97.62    0.7883E-05
    98.76    0.7902E-05
    99.90    0.7922E-05
   101.05    0.7941E-05
   102.19    0.7961E-05
   103.33    0.7981E-05
   104.47    0.8001E-05
   105.61    0.8021E-05
   106.76    0.8041E-05
   107.90    0.8061E-05
   109.04    0.8081E-05
   110.18    0.8102E-05
   111.33    0.8122E-05
   112.47    0.8142E-05
   113.61    0.8163E-05
   114.75    0.8183E-05
   115.89    0.8204E-05
   117.04    0.8225E-05
   118.18    0.8246E-05
   119.32    0.8267E-05
   120.46    0.8287E-05
   121.61    0.8309E-05
   122.75    0.8330E-05
   123.89    0.8351E-05
   125.03    0.8372E-05
   126.17    0.8394E-05
   127.32    0.8415E-05
   128.46    0.8437E-05
   129.60    0.8458E-05
   130.74    0.8480E-05
   131.88    0.8502E-05
   133.03    0.8524E-05
   134.17    0.8546E-05
   135.31    0.8568E-05
   136.45    0.8590E-05
   137.60    0.8612E-05
   138.74    0.8634E-05
   139.88    0.8657E-05
   141.02    0.8679E-05
   142.16    0.8702E-05
   143.31    0.8724E-05
   144.45    0.8747E-05
   145.59    0.8770E-05
   146.73    0.8793E-05
   147.88    0.8816E-05
   149.02    0.8839E-05
   150.16    0.8862E-05
   151.30    0.8886E-05
   152.44    0.8909E-05
   153.59    0.8932E-05
   154.73    0.8956E-05
   155.87    0.8980E-05
   157.01    0.9003E-05
   158.15    0.9027E-05
   159.30    0.9051E-05
   160.44    0.9075E-05
   161.58    0.9099E-05
   162.72    0.9124E-05
   163.87    0.9148E-05
   165.01    0.9172E-05
   166.15    0.9197E-05
   167.29    0.9221E-05
   168.43    0.9246E-05
   169.58    0.9271E-05
   170.72    0.9296E-05
   171.86    0.9321E-05
   173.00    0.9346E-05
   174.15    0.9371E-05
   175.29    0.9397E-05
   176.43    0.9422E-05
   177.57    0.9448E-05
   178.71    0.9473E-05
   179.86    0.9499E-05
   181.00    0.9525E-05
   182.14    0.9551E-05
   183.28    0.9577E-05
   184.42    0.9603E-05
   185.57    0.9629E-05
   186.71    0.9656E-05
   187.85    0.9682E-05
   188.99    0.9709E-05
   190.14    0.9735E-05
   191.28    0.9762E-05
   192.42    0.9789E-05
   193.56    0.9816E-05
   194.70    0.9843E-05
   195.85    0.9871E-05
   196.99    0.9898E-05
   198.13    0.9925E-05
   199.27    0.9953E-05
   200.42    0.9981E-05
   201.56    0.1001E-04
   202.70    0.1004E-04
   203.84    0.1006E-04
   204.98    0.1009E-04
   206.13    0.1012E-04
   207.27    0.1015E-04
   208.41    0.1018E-04
   209.55    0.1021E-04
   210.69    0.1024E-04
   211.84    0.1026E-04
   212.98    0.1029E-04
   214.12    0.1032E-04
   215.26    0.1035E-04
   216.41    0.1038E-04
   217.55    0.1041E-04
   218.69    0.1044E-04
   219.83    0.1047E-04
   220.97    0.1050E-04
   222.12    0.1053E-04
   223.26    0.1056E-04
   224.40    0.1059E-04
   225.54    0.1062E-04
   226.69    0.1065E-04
   227.83    0.1068E-04
   228.97    0.1071E-04
   230.11    0.1074E-04
   231.25    0.1078E-04
   232.40    0.1081E-04
   233.54    0.1084E-04
   234.68    0.1087E-04
   235.82    0.1090E-04
   236.96    0.1093E-04
   238.11    0.1096E-04
   239.25    0.1100E-04
   240.39    0.1103E-04
   241.53    0.1106E-04
   242.68    0.1109E-04
   243.82    0.1113E-04
   244.96    0.1116E-04
   246.10    0.1119E-04
   247.24    0.1123E-04
   248.39    0.1126E-04
   249.53    0.1129E-04
   250.67    0.1133E-04
   251.81    0.1136E-04
   252.96    0.1139E-04
   254.10    0.1143E-04
   255.24    0.1146E-04
   256.38    0.1150E-04
   257.52    0.1153E-04
   258.67    0.1156E-04
   259.81    0.1160E-04
   260.95    0.1163E-04
   262.09    0.1167E-04
   263.23    0.1170E-04
   264.38    0.1174E-04
   265.52    0.1177E-04
   266.66    0.1181E-04
   267.80    0.1185E-04
   268.95    0.1188E-04
   270.09    0.1192E-04
   271.23    0.1195E-04
   272.37    0.1199E-04
   273.51    0.1203E-04
   274.66    0.1206E-04
   275.80    0.1210E-04
   276.94    0.1214E-04
   278.08    0.1218E-04
   279.23    0.1221E-04
   280.37    0.1225E-04
   281.51    0.1229E-04
   282.65    0.1233E-04
   283.79    0.1237E-04
   284.94    0.1240E-04
   286.08    0.1244E-04
   287.22    0.1248E-04
   288.36    0.1252E-04
   289.50    0.1256E-04
   290.65    0.1260E-04
   291.79    0.1264E-04
   292.93    0.1268E-04
   294.07    0.1272E-04
   295.22    0.1276E-04
   296.36    0.1280E-04
   297.50    0.1284E-04
   298.64    0.1288E-04
   299.78    0.1292E-04
   300.93    0.1296E-04
   302.07    0.1300E-04
   303.21    0.1304E-04
   304.35    0.1309E-04
   305.50    0.1313E-04
   306.64    0.1317E-04
   307.78    0.1321E-04
   308.92    0.1325E-04
   310.06    0.1330E-04
   311.21    0.1334E-04
   312.35    0.1338E-04
   313.49    0.1343E-04
   314.63    0.1347E-04
   315.77    0.1351E-04
   316.92    0.1356E-04
   318.06    0.1360E-04
   319.20    0.1364E-04
   320.34    0.1369E-04
   321.49    0.1373E-04
   322.63    0.1378E-04
   323.77    0.1382E-04
   324.91    0.1387E-04
   326.05    0.1391E-04
   327.20    0.1396E-04
   328.34    0.1401E-04
   329.48    0.1405E-04
   330.62    0.1410E-04
   331.77    0.1415E-04
   332.91    0.1419E-04
   334.05    0.1424E-04
   335.19    0.1429E-04
   336.33    0.1434E-04
   337.48    0.1438E-04
   338.62    0.1443E-04
   339.76    0.1448E-04
   340.90    0.1453E-04
   342.04    0.1458E-04
   343.19    0.1463E-04
   344.33    0.1468E-04
   345.47    0.1473E-04
   346.61    0.1478E-04
   347.76    0.1483E-04
   348.90    0.1488E-04
   350.04    0.1493E-04
   351.18    0.1498E-04
   352.32    0.1503E-04
   353.47    0.1508E-04
   354.61    0.1513E-04
   355.75    0.1518E-04
   356.89    0.1524E-04
   358.04    0.1529E-04
   359.18    0.1534E-04
   360.32    0.1540E-04
   361.46    0.1545E-04
   362.60    0.1550E-04
   363.75    0.1556E-04
   364.89    0.1561E-04
   366.03    0.1566E-04
   367.17    0.1572E-04
   368.31    0.1577E-04
   369.46    0.1583E-04
   370.60    0.1589E-04
   371.74    0.1594E-04
   372.88    0.1600E-04
   374.03    0.1605E-04
   375.17    0.1611E-04
   376.31    0.1617E-04
   377.45    0.1623E-04
   378.59    0.1628E-04
   379.74    0.1634E-04
   380.88    0.1640E-04
   382.02    0.1646E-04
   383.16    0.1652E-04
   384.31    0.1658E-04
   385.45    0.1664E-04
   386.59    0.1670E-04
   387.73    0.1676E-04
   388.87    0.1682E-04
   390.02    0.1688E-04
   391.16    0.1694E-04
   392.30    0.1700E-04
   393.44    0.1706E-04
   394.58    0.1713E-04
   395.73    0.1719E-04
   396.87    0.1725E-04
   398.01    0.1731E-04
   399.15    0.1738E-04
   400.30    0.1744E-04
   401.44    0.1751E-04
   402.58    0.1757E-04
   403.72    0.1764E-04
   404.86    0.1770E-04
   406.01    0.1777E-04
   407.15    0.1783E-04
   408.29    0.1790E-04
   409.43    0.1797E-04
   410.57    0.1803E-04
   411.72    0.1810E-04
   412.86    0.1817E-04
   414.00    0.1824E-04
   415.14    0.1831E-04
   416.29    0.1838E-04
   417.43    0.1845E-04
   418.57    0.1852E-04
   419.71    0.1859E-04
   420.85    0.1866E-04
   422.00    0.1873E-04
   423.14    0.1880E-04
   424.28    0.1887E-04
   425.42    0.1894E-04
   426.57    0.1902E-04
   427.71    0.1909E-04
   428.85    0.1916E-04
   429.99    0.1924E-04
   431.13    0.1931E-04
   432.28    0.1939E-04
   433.42    0.1946E-04
   434.56    0.1954E-04
   435.70    0.1961E-04
   436.84    0.1969E-04
   437.99    0.1977E-04
   439.13    0.1985E-04
   440.27    0.1992E-04
   441.41    0.2000E-04
   442.56    0.2008E-04
   443.70    0.2016E-04
   444.84    0.2024E-04
   445.98    0.2032E-04
   447.12    0.2040E-04
   448.27    0.2048E-04
   449.41    0.2057E-04
   450.55    0.2065E-04
   451.69    0.2073E-04
   452.84    0.2082E-04
   453.98    0.2090E-04
   455.12    0.2098E-04
   456.26    0.2107E-04
   457.40    0.2115E-04
   458.55    0.2124E-04
   459.69    0.2133E-04
   460.83    0.2141E-04
   461.97    0.2150E-04
   463.11    0.2159E-04
   464.26    0.2168E-04
   465.40    0.2177E-04
   466.54    0.2186E-04
   467.68    0.2195E-04
   468.83    0.2204E-04
   469.97    0.2213E-04
   471.11    0.2222E-04
   472.25    0.2231E-04
   473.39    0.2241E-04
   474.54    0.2250E-04
   475.68    0.2259E-04
   476.82    0.2269E-04
   477.96    0.2279E-04
   479.11    0.2288E-04
   480.25    0.2298E-04
   481.39    0.2308E-04
   482.53    0.2317E-04
   483.67    0.2327E-04
   484.82    0.2337E-04
   485.96    0.2347E-04
   487.10    0.2357E-04
   488.24    0.2367E-04
   489.38    0.2377E-04
   490.53    0.2388E-04
   491.67    0.2398E-04
   492.81    0.2408E-04
   493.95    0.2419E-04
   495.10    0.2429E-04
   496.24    0.2440E-04
   497.38    0.2451E-04
   498.52    0.2461E-04
   499.66    0.2472E-04
   500.81    0.2483E-04
   501.95    0.2494E-04
   503.09    0.2505E-04
   504.23    0.2516E-04
   505.38    0.2527E-04
   506.52    0.2538E-04
   507.66    0.2550E-04
   508.80    0.2561E-04
   509.94    0.2572E-04
   511.09    0.2584E-04
   512.23    0.2596E-04
   513.37    0.2607E-04
   514.51    0.2619E-04
   515.65    0.2631E-04
   516.80    0.2643E-04
   517.94    0.2655E-04
   519.08    0.2667E-04
   520.22    0.2679E-04
   521.37    0.2691E-04
   522.51    0.2704E-04
   523.65    0.2716E-04
   524.79    0.2729E-04
   525.93    0.2741E-04
   527.08    0.2754E-04
   528.22    0.2767E-04
   529.36    0.2780E-04
   530.50    0.2793E-04
   531.65    0.2806E-04
   532.79    0.2819E-04
   533.93    0.2832E-04
   535.07    0.2845E-04
   536.21    0.2859E-04
   537.36    0.2872E-04
   538.50    0.2886E-04
   539.64    0.2900E-04
   540.78    0.2913E-04
   541.92    0.2927E-04
   543.07    0.2941E-04
   544.21    0.2955E-04
   545.35    0.2970E-04
   546.49    0.2984E-04
   547.64    0.2998E-04
   548.78    0.3013E-04
   549.92    0.3027E-04
   551.06    0.3042E-04
   552.20    0.3057E-04
   553.35    0.3072E-04
   554.49    0.3087E-04
   555.63    0.3102E-04
   556.77    0.3117E-04
   557.92    0.3133E-04
   559.06    0.3148E-04
   560.20    0.3164E-04
   561.34    0.3180E-04
   562.48    0.3195E-04
   563.63    0.3211E-04
   564.77    0.3228E-04
   565.91    0.3244E-04
   567.05    0.3260E-04
   568.19    0.3277E-04
   569.34    0.3293E-04
   570.48    0.3310E-04
   571.62    0.3327E-04
   572.76    0.3344E-04
   573.91    0.3361E-04
   575.05    0.3378E-04
   576.19    0.3395E-04
   577.33    0.3413E-04
   578.47    0.3430E-04
   579.62    0.3448E-04
   580.76    0.3466E-04
   581.90    0.3484E-04
   583.04    0.3502E-04
   584.19    0.3521E-04
   585.33    0.3539E-04
   586.47    0.3558E-04
   587.61    0.3577E-04
   588.75    0.3595E-04
   589.90    0.3615E-04
   591.04    0.3634E-04
   592.18    0.3653E-04
   593.32    0.3673E-04
   594.46    0.3692E-04
   595.61    0.3712E-04
   596.75    0.3732E-04
   597.89    0.3752E-04
   599.03    0.3773E-04
   600.18    0.3793E-04
   601.32    0.3814E-04
   602.46    0.3835E-04
   603.60    0.3856E-04
   604.74    0.3877E-04
   605.89    0.3898E-04
   607.03    0.3920E-04
   608.17    0.3941E-04
   609.31    0.3963E-04
   610.46    0.3985E-04
   611.60    0.4008E-04
   612.74    0.4030E-04
   613.88    0.4053E-04
   615.02    0.4075E-04
   616.17    0.4099E-04
   617.31    0.4122E-04
   618.45    0.4145E-04
   619.59    0.4169E-04
   620.73    0.4193E-04
   621.88    0.4217E-04
   623.02    0.4241E-04
   624.16    0.4265E-04
   625.30    0.4290E-04
   626.45    0.4315E-04
   627.59    0.4340E-04
   628.73    0.4365E-04
   629.87    0.4391E-04
   631.01    0.4416E-04
   632.16    0.4442E-04
   633.30    0.4468E-04
   634.44    0.4495E-04
   635.58    0.4522E-04
   636.73    0.4548E-04
   637.87    0.4576E-04
   639.01    0.4603E-04
   640.15    0.4631E-04
   641.29    0.4658E-04
   642.44    0.4687E-04
   643.58    0.4715E-04
   644.72    0.4744E-04
   645.86    0.4773E-04
   647.00    0.4802E-04
   648.15    0.4831E-04
   649.29    0.4861E-04
   650.43    0.4891E-04
   651.57    0.4921E-04
   652.72    0.4952E-04
   653.86    0.4982E-04
   655.00    0.5014E-04
   656.14    0.5045E-04
   657.28    0.5077E-04
   658.43    0.5109E-04
   659.57    0.5141E-04
   660.71    0.5174E-04
   661.85    0.5207E-04
   663.00    0.5240E-04
   664.14    0.5273E-04
   665.28    0.5307E-04
   666.42    0.5342E-04
   667.56    0.5376E-04
   668.71    0.5411E-04
   669.85    0.5446E-04
   670.99    0.5482E-04
   672.13    0.5518E-04
   673.27    0.5554E-04
   674.42    0.5591E-04
   675.56    0.5628E-04
   676.70    0.5665E-04
   677.84    0.5703E-04
   678.99    0.5741E-04
   680.13    0.5779E-04
   681.27    0.5818E-04
   682.41    0.5857E-04
   683.55    0.5897E-04
   684.70    0.5937E-04
   685.84    0.5978E-04
   686.98    0.6019E-04
   688.12    0.6060E-04
   689.27    0.6102E-04
   690.41    0.6144E-04
   691.55    0.6187E-04
   692.69    0.6230E-04
   693.83    0.6273E-04
   694.98    0.6317E-04
   696.12    0.6362E-04
   697.26    0.6407E-04
   698.40    0.6452E-04
   699.54    0.6498E-04
   700.69    0.6544E-04
   701.83    0.6591E-04
   702.97    0.6638E-04
   704.11    0.6686E-04
   705.26    0.6735E-04
   706.40    0.6784E-04
   707.54    0.6833E-04
   708.68    0.6883E-04
   709.82    0.6934E-04
   710.97    0.6985E-04
   712.11    0.7037E-04
   713.25    0.7089E-04
   714.39    0.7142E-04
   715.53    0.7195E-04
   716.68    0.7249E-04
   717.82    0.7304E-04
   718.96    0.7359E-04
   720.10    0.7415E-04
   721.25    0.7471E-04
   722.39    0.7529E-04
   723.53    0.7587E-04
   724.67    0.7645E-04
   725.81    0.7704E-04
   726.96    0.7764E-04
   728.10    0.7825E-04
   729.24    0.7886E-04
   730.38    0.7948E-04
   731.53    0.8011E-04
   732.67    0.8074E-04
   733.81    0.8139E-04
   734.95    0.8204E-04
   736.09    0.8269E-04
   737.24    0.8336E-04
   738.38    0.8404E-04
   739.52    0.8472E-04
   740.66    0.8541E-04
   741.80    0.8611E-04
   742.95    0.8682E-04
   744.09    0.8753E-04
   745.23    0.8826E-04
   746.37    0.8899E-04
   747.52    0.8974E-04
   748.66    0.9049E-04
   749.80    0.9125E-04
   750.94    0.9202E-04
   752.08    0.9281E-04
   753.23    0.9360E-04
   754.37    0.9440E-04
   755.51    0.9521E-04
   756.65    0.9604E-04
   757.80    0.9687E-04
   758.94    0.9772E-04
   760.08    0.9857E-04
   761.22    0.9944E-04
   762.36    0.1003E-03
   763.51    0.1012E-03
   764.65    0.1021E-03
   765.79    0.1030E-03
   766.93    0.1040E-03
   768.07    0.1049E-03
   769.22    0.1058E-03
   770.36    0.1068E-03
   771.50    0.1078E-03
   772.64    0.1088E-03
   773.79    0.1098E-03
   774.93    0.1108E-03
   776.07    0.1118E-03
   777.21    0.1129E-03
   778.35    0.1140E-03
   779.50    0.1150E-03
   780.64    0.1161E-03
   781.78    0.1172E-03
   782.92    0.1184E-03
   784.07    0.1195E-03
   785.21    0.1207E-03
   786.35    0.1218E-03
   787.49    0.1230E-03
   788.63    0.1242E-03
   789.78    0.1255E-03
   790.92    0.1267E-03
   792.06    0.1280E-03
   793.20    0.1293E-03
   794.34    0.1306E-03
   795.49    0.1319E-03
   796.63    0.1332E-03
   797.77    0.1346E-03
   798.91    0.1360E-03
   800.06    0.1374E-03
   801.20    0.1388E-03
   802.34    0.1403E-03
   803.48    0.1417E-03
   804.62    0.1432E-03
   805.77    0.1448E-03
   806.91    0.1463E-03
   808.05    0.1479E-03
   809.19    0.1495E-03
   810.34    0.1511E-03
   811.48    0.1527E-03
   812.62    0.1544E-03
   813.76    0.1561E-03
   814.90    0.1578E-03
   816.05    0.1596E-03
   817.19    0.1614E-03
   818.33    0.1632E-03
   819.47    0.1651E-03
   820.61    0.1669E-03
   821.76    0.1689E-03
   822.90    0.1708E-03
   824.04    0.1728E-03
   825.18    0.1748E-03
   826.33    0.1769E-03
   827.47    0.1789E-03
   828.61    0.1811E-03
   829.75    0.1832E-03
   830.89    0.1854E-03
   832.04    0.1877E-03
   833.18    0.1900E-03
   834.32    0.1923E-03
   835.46    0.1946E-03
   836.61    0.1971E-03
   837.75    0.1995E-03
   838.89    0.2020E-03
   840.03    0.2046E-03
   841.17    0.2072E-03
   842.32    0.2098E-03
   843.46    0.2125E-03
   844.60    0.2153E-03
   845.74    0.2181E-03
   846.88    0.2209E-03
   848.03    0.2238E-03
   849.17    0.2268E-03
   850.31    0.2299E-03
   851.45    0.2330E-03
   852.60    0.2361E-03
   853.74    0.2393E-03
   854.88    0.2426E-03
   856.02    0.2460E-03
   857.16    0.2494E-03
   858.31    0.2529E-03
   859.45    0.2565E-03
   860.59    0.2601E-03
   861.73    0.2639E-03
   862.88    0.2677E-03
   864.02    0.2716E-03
   865.16    0.2755E-03
   866.30    0.2796E-03
   867.44    0.2838E-03
   868.59    0.2880E-03
   869.73    0.2924E-03
   870.87    0.2968E-03
   872.01    0.3014E-03
   873.15    0.3060E-03
   874.30    0.3108E-03
   875.44    0.3156E-03
   876.58    0.3206E-03
   877.72    0.3257E-03
   878.87    0.3310E-03
   880.01    0.3363E-03
   881.15    0.3418E-03
   882.29    0.3474E-03
   883.43    0.3532E-03
   884.58    0.3591E-03
   885.72    0.3652E-03
   886.86    0.3714E-03
   888.00    0.3777E-03
   889.15    0.3843E-03
   890.29    0.3910E-03
   891.43    0.3978E-03
   892.57    0.4049E-03
   893.71    0.4122E-03
   894.86    0.4196E-03
   896.00    0.4273E-03
   897.14    0.4351E-03
   898.28    0.4432E-03
   899.42    0.4515E-03
   900.57    0.4601E-03
   901.71    0.4689E-03
   902.85    0.4779E-03
   903.99    0.4872E-03
   905.14    0.4968E-03
   906.28    0.5066E-03
   907.42    0.5168E-03
   908.56    0.5273E-03
   909.70    0.5381E-03
   910.85    0.5492E-03
   911.99    0.5606E-03
   913.13    0.5725E-03
   914.27    0.5847E-03
   915.42    0.5973E-03
   916.56    0.6103E-03
   917.70    0.6237E-03
   918.84    0.6376E-03
   919.98    0.6520E-03
   921.13    0.6668E-03
   922.27    0.6822E-03
   923.41    0.6981E-03
   924.55    0.7145E-03
   925.69    0.7316E-03
   926.84    0.7492E-03
   927.98    0.7675E-03
   929.12    0.7865E-03
   930.26    0.8061E-03
   931.41    0.8266E-03
   932.55    0.8478E-03
   933.69    0.8698E-03
   934.83    0.8927E-03
   935.97    0.9165E-03
   937.12    0.9413E-03
   938.26    0.9671E-03
   939.40    0.9939E-03
   940.54    0.1022E-02
   941.69    0.1051E-02
   942.83    0.1081E-02
   943.97    0.1113E-02
   945.11    0.1146E-02
   946.25    0.1181E-02
   947.40    0.1217E-02
   948.54    0.1255E-02
   949.68    0.1295E-02
   950.82    0.1337E-02
   951.96    0.1380E-02
   953.11    0.1426E-02
   954.25    0.1474E-02
   955.39    0.1525E-02
   956.53    0.1578E-02
   957.68    0.1634E-02
   958.82    0.1693E-02
   959.96    0.1755E-02
   961.10    0.1821E-02
   962.24    0.1890E-02
   963.39    0.1964E-02
   964.53    0.2042E-02
   965.67    0.2124E-02
   966.81    0.2212E-02
   967.96    0.2305E-02
   969.10    0.2403E-02
   970.24    0.2509E-02
   971.38    0.2621E-02
   972.52    0.2741E-02
   973.67    0.2869E-02
   974.81    0.3006E-02
   975.95    0.3153E-02
   977.09    0.3311E-02
   978.23    0.3480E-02
   979.38    0.3663E-02
   980.52    0.3861E-02
   981.66    0.4074E-02
   982.80    0.4306E-02
   983.95    0.4557E-02
   985.09    0.4830E-02
   986.23    0.5127E-02
   987.37    0.5452E-02
   988.51    0.5809E-02
   989.66    0.6199E-02
   990.80    0.6630E-02
   991.94    0.7104E-02
   993.08    0.7630E-02
   994.23    0.8213E-02
   995.37    0.8861E-02
   996.51    0.9586E-02
   997.65    0.1040E-01
   998.79    0.1131E-01
   999.94    0.1233E-01
  1001.08    0.1350E-01
  1002.22    0.1481E-01
  1003.36    0.1631E-01
  1004.50    0.1802E-01
  1005.65    0.1997E-01
  1006.79    0.2220E-01
  1007.93    0.2475E-01
  1009.07    0.2767E-01
  1010.22    0.3098E-01
  1011.36    0.3473E-01
  1012.50    0.3891E-01
  1013.64    0.4349E-01
  1014.78    0.4836E-01
  1015.93    0.5333E-01
  1017.07    0.5810E-01
  1018.21    0.6227E-01
  1019.35    0.6538E-01
  1020.49    0.6703E-01
  1021.64    0.6697E-01
  1022.78    0.6523E-01
  1023.92    0.6204E-01
  1025.06    0.5782E-01
  1026.21    0.5302E-01
  1027.35    0.4804E-01
  1028.49    0.4319E-01
  1029.63    0.3863E-01
  1030.77    0.3448E-01
  1031.92    0.3076E-01
  1033.06    0.2747E-01
  1034.20    0.2458E-01
  1035.34    0.2205E-01
  1036.49    0.1984E-01
  1037.63    0.1790E-01
  1038.77    0.1621E-01
  1039.91    0.1472E-01
  1041.05    0.1342E-01
  1042.20    0.1227E-01
  1043.34    0.1125E-01
  1044.48    0.1034E-01
  1045.62    0.9538E-02
  1046.76    0.8818E-02
  1047.91    0.8174E-02
  1049.05    0.7595E-02
  1050.19    0.7073E-02
  1051.33    0.6601E-02
  1052.48    0.6174E-02
  1053.62    0.5785E-02
  1054.76    0.5431E-02
  1055.90    0.5108E-02
  1057.04    0.4812E-02
  1058.19    0.4540E-02
  1059.33    0.4290E-02
  1060.47    0.4060E-02
  1061.61    0.3848E-02
  1062.76    0.3651E-02
  1063.90    0.3469E-02
  1065.04    0.3300E-02
  1066.18    0.3143E-02
  1067.32    0.2997E-02
  1068.47    0.2860E-02
  1069.61    0.2733E-02
  1070.75    0.2613E-02
  1071.89    0.2502E-02
  1073.03    0.2397E-02
  1074.18    0.2298E-02
  1075.32    0.2206E-02
  1076.46    0.2119E-02
  1077.60    0.2037E-02
  1078.75    0.1959E-02
  1079.89    0.1886E-02
  1081.03    0.1817E-02
  1082.17    0.1751E-02
