
 ------------------------------------------------------------
     resonance       Raman Scattering Plot
 ------------------------------------------------------------
 Excitation wavelength  514.50 nm
 Convolution lineshape is lorentzian  
 FWHM   20.00  1/cm
 ------------------------------------------------------------
 ------------------------------------------------------------
 # of frequencies :     3
 ------------------------------------------------------------
#  freq [ 1/cm]  S-tot [a.u.]S-real [a.u.]  S-imag [a.u.]
 ------------------------------------------------------------
   1  1584.29        1.6779        1.6775        0.0004
   2  3674.59      114.9261      114.8841        0.0420
   3  3786.71       28.9080       28.8973        0.0106
 ------------------------------------------------------------
  1526.61    0.5932E-04    0.5930E-04    0.1346E-07
  1528.94    0.6417E-04    0.6415E-04    0.1455E-07
  1531.26    0.6964E-04    0.6962E-04    0.1578E-07
  1533.59    0.7585E-04    0.7583E-04    0.1718E-07
  1535.91    0.8292E-04    0.8290E-04    0.1877E-07
  1538.24    0.9102E-04    0.9100E-04    0.2059E-07
  1540.56    0.1004E-03    0.1003E-03    0.2269E-07
  1542.89    0.1112E-03    0.1112E-03    0.2512E-07
  1545.21    0.1239E-03    0.1239E-03    0.2797E-07
  1547.54    0.1388E-03    0.1388E-03    0.3133E-07
  1549.86    0.1566E-03    0.1565E-03    0.3532E-07
  1552.19    0.1779E-03    0.1778E-03    0.4010E-07
  1554.51    0.2037E-03    0.2036E-03    0.4590E-07
  1556.83    0.2353E-03    0.2352E-03    0.5300E-07
  1559.16    0.2744E-03    0.2744E-03    0.6180E-07
  1561.48    0.3236E-03    0.3235E-03    0.7284E-07
  1563.81    0.3861E-03    0.3860E-03    0.8688E-07
  1566.13    0.4666E-03    0.4665E-03    0.1050E-06
  1568.46    0.5715E-03    0.5714E-03    0.1285E-06
  1570.78    0.7093E-03    0.7091E-03    0.1595E-06
  1573.11    0.8899E-03    0.8897E-03    0.2001E-06
  1575.43    0.1122E-02    0.1122E-02    0.2522E-06
  1577.76    0.1403E-02    0.1403E-02    0.3154E-06
  1580.08    0.1700E-02    0.1700E-02    0.3822E-06
  1582.41    0.1933E-02    0.1932E-02    0.4344E-06
  1584.73    0.1997E-02    0.1997E-02    0.4489E-06
  1587.06    0.1859E-02    0.1858E-02    0.4178E-06
  1589.38    0.1589E-02    0.1589E-02    0.3572E-06
  1591.71    0.1291E-02    0.1291E-02    0.2903E-06
  1594.03    0.1027E-02    0.1027E-02    0.2309E-06
  1596.36    0.8153E-03    0.8152E-03    0.1833E-06
  1598.68    0.6522E-03    0.6521E-03    0.1467E-06
  1601.01    0.5281E-03    0.5280E-03    0.1188E-06
  1603.33    0.4334E-03    0.4333E-03    0.9753E-07
  1605.65    0.3604E-03    0.3603E-03    0.8113E-07
  1607.98    0.3035E-03    0.3034E-03    0.6834E-07
  1610.30    0.2585E-03    0.2584E-03    0.5823E-07
  1612.63    0.2225E-03    0.2224E-03    0.5013E-07
  1614.95    0.1933E-03    0.1932E-03    0.4357E-07
  1617.28    0.1693E-03    0.1693E-03    0.3820E-07
  1619.60    0.1495E-03    0.1495E-03    0.3374E-07
  1621.93    0.1329E-03    0.1329E-03    0.3001E-07
  1624.25    0.1189E-03    0.1189E-03    0.2686E-07
  1626.58    0.1070E-03    0.1069E-03    0.2418E-07
  1628.90    0.9672E-04    0.9670E-04    0.2188E-07
  1631.23    0.8788E-04    0.8786E-04    0.1989E-07
  1633.55    0.8020E-04    0.8018E-04    0.1817E-07
  1635.88    0.7348E-04    0.7346E-04    0.1666E-07
  1638.20    0.6757E-04    0.6756E-04    0.1533E-07
  1640.53    0.6236E-04    0.6234E-04    0.1416E-07
  1642.85    0.5772E-04    0.5771E-04    0.1312E-07
  1645.18    0.5359E-04    0.5358E-04    0.1219E-07
  1647.50    0.4989E-04    0.4988E-04    0.1136E-07
  1649.82    0.4657E-04    0.4656E-04    0.1061E-07
  1652.15    0.4357E-04    0.4356E-04    0.9941E-08
  1654.47    0.4086E-04    0.4085E-04    0.9332E-08
  1656.80    0.3840E-04    0.3839E-04    0.8779E-08
  1659.12    0.3616E-04    0.3615E-04    0.8276E-08
  1661.45    0.3411E-04    0.3411E-04    0.7817E-08
  1663.77    0.3224E-04    0.3223E-04    0.7396E-08
  1666.10    0.3052E-04    0.3052E-04    0.7011E-08
  1668.42    0.2894E-04    0.2894E-04    0.6656E-08
  1670.75    0.2749E-04    0.2748E-04    0.6329E-08
  1673.07    0.2614E-04    0.2614E-04    0.6028E-08
  1675.40    0.2490E-04    0.2489E-04    0.5748E-08
  1677.72    0.2374E-04    0.2374E-04    0.5489E-08
  1680.05    0.2267E-04    0.2267E-04    0.5249E-08
  1682.37    0.2167E-04    0.2167E-04    0.5025E-08
  1684.70    0.2074E-04    0.2074E-04    0.4816E-08
  1687.02    0.1987E-04    0.1987E-04    0.4621E-08
  1689.35    0.1906E-04    0.1906E-04    0.4439E-08
  1691.67    0.1830E-04    0.1830E-04    0.4269E-08
  1694.00    0.1759E-04    0.1759E-04    0.4109E-08
  1696.32    0.1692E-04    0.1692E-04    0.3959E-08
  1698.64    0.1629E-04    0.1629E-04    0.3818E-08
  1700.97    0.1570E-04    0.1570E-04    0.3686E-08
  1703.29    0.1514E-04    0.1514E-04    0.3561E-08
  1705.62    0.1462E-04    0.1461E-04    0.3443E-08
  1707.94    0.1412E-04    0.1412E-04    0.3332E-08
  1710.27    0.1365E-04    0.1365E-04    0.3227E-08
  1712.59    0.1321E-04    0.1320E-04    0.3127E-08
  1714.92    0.1279E-04    0.1278E-04    0.3033E-08
  1717.24    0.1239E-04    0.1238E-04    0.2944E-08
  1719.57    0.1201E-04    0.1200E-04    0.2859E-08
  1721.89    0.1165E-04    0.1165E-04    0.2779E-08
  1724.22    0.1131E-04    0.1130E-04    0.2702E-08
  1726.54    0.1098E-04    0.1098E-04    0.2629E-08
  1728.87    0.1067E-04    0.1067E-04    0.2560E-08
  1731.19    0.1038E-04    0.1037E-04    0.2494E-08
  1733.52    0.1010E-04    0.1009E-04    0.2432E-08
  1735.84    0.9827E-05    0.9825E-05    0.2372E-08
  1738.17    0.9571E-05    0.9569E-05    0.2315E-08
  1740.49    0.9326E-05    0.9324E-05    0.2260E-08
  1742.81    0.9092E-05    0.9090E-05    0.2208E-08
  1745.14    0.8869E-05    0.8866E-05    0.2158E-08
  1747.46    0.8654E-05    0.8652E-05    0.2110E-08
  1749.79    0.8449E-05    0.8447E-05    0.2064E-08
  1752.11    0.8252E-05    0.8250E-05    0.2021E-08
  1754.44    0.8064E-05    0.8062E-05    0.1979E-08
  1756.76    0.7883E-05    0.7881E-05    0.1938E-08
  1759.09    0.7709E-05    0.7707E-05    0.1900E-08
  1761.41    0.7543E-05    0.7541E-05    0.1863E-08
  1763.74    0.7382E-05    0.7381E-05    0.1827E-08
  1766.06    0.7228E-05    0.7227E-05    0.1793E-08
  1768.39    0.7080E-05    0.7079E-05    0.1760E-08
  1770.71    0.6938E-05    0.6936E-05    0.1728E-08
  1773.04    0.6801E-05    0.6799E-05    0.1698E-08
  1775.36    0.6668E-05    0.6667E-05    0.1669E-08
  1777.69    0.6541E-05    0.6540E-05    0.1641E-08
  1780.01    0.6418E-05    0.6417E-05    0.1613E-08
  1782.34    0.6300E-05    0.6299E-05    0.1587E-08
  1784.66    0.6186E-05    0.6185E-05    0.1562E-08
  1786.99    0.6076E-05    0.6074E-05    0.1538E-08
  1789.31    0.5970E-05    0.5968E-05    0.1514E-08
  1791.63    0.5867E-05    0.5866E-05    0.1492E-08
  1793.96    0.5768E-05    0.5767E-05    0.1470E-08
  1796.28    0.5672E-05    0.5671E-05    0.1449E-08
  1798.61    0.5580E-05    0.5578E-05    0.1428E-08
  1800.93    0.5490E-05    0.5489E-05    0.1409E-08
  1803.26    0.5404E-05    0.5402E-05    0.1390E-08
  1805.58    0.5320E-05    0.5318E-05    0.1371E-08
  1807.91    0.5239E-05    0.5237E-05    0.1353E-08
  1810.23    0.5160E-05    0.5159E-05    0.1336E-08
  1812.56    0.5084E-05    0.5083E-05    0.1320E-08
  1814.88    0.5011E-05    0.5009E-05    0.1303E-08
  1817.21    0.4939E-05    0.4938E-05    0.1288E-08
  1819.53    0.4870E-05    0.4869E-05    0.1273E-08
  1821.86    0.4803E-05    0.4802E-05    0.1258E-08
  1824.18    0.4738E-05    0.4737E-05    0.1244E-08
  1826.51    0.4675E-05    0.4674E-05    0.1230E-08
  1828.83    0.4614E-05    0.4613E-05    0.1217E-08
  1831.16    0.4555E-05    0.4554E-05    0.1204E-08
  1833.48    0.4497E-05    0.4496E-05    0.1192E-08
  1835.80    0.4441E-05    0.4440E-05    0.1180E-08
  1838.13    0.4387E-05    0.4386E-05    0.1168E-08
  1840.45    0.4334E-05    0.4333E-05    0.1156E-08
  1842.78    0.4283E-05    0.4282E-05    0.1145E-08
  1845.10    0.4234E-05    0.4232E-05    0.1135E-08
  1847.43    0.4185E-05    0.4184E-05    0.1124E-08
  1849.75    0.4138E-05    0.4137E-05    0.1114E-08
  1852.08    0.4093E-05    0.4092E-05    0.1104E-08
  1854.40    0.4048E-05    0.4047E-05    0.1095E-08
  1856.73    0.4005E-05    0.4004E-05    0.1086E-08
  1859.05    0.3963E-05    0.3962E-05    0.1077E-08
  1861.38    0.3922E-05    0.3921E-05    0.1068E-08
  1863.70    0.3883E-05    0.3882E-05    0.1060E-08
  1866.03    0.3844E-05    0.3843E-05    0.1051E-08
  1868.35    0.3806E-05    0.3805E-05    0.1043E-08
  1870.68    0.3770E-05    0.3769E-05    0.1036E-08
  1873.00    0.3734E-05    0.3733E-05    0.1028E-08
  1875.33    0.3700E-05    0.3699E-05    0.1021E-08
  1877.65    0.3666E-05    0.3665E-05    0.1014E-08
  1879.97    0.3633E-05    0.3632E-05    0.1007E-08
  1882.30    0.3601E-05    0.3600E-05    0.1000E-08
  1884.62    0.3570E-05    0.3569E-05    0.9937E-09
  1886.95    0.3539E-05    0.3538E-05    0.9874E-09
  1889.27    0.3510E-05    0.3509E-05    0.9812E-09
  1891.60    0.3481E-05    0.3480E-05    0.9753E-09
  1893.92    0.3453E-05    0.3452E-05    0.9694E-09
  1896.25    0.3426E-05    0.3425E-05    0.9638E-09
  1898.57    0.3399E-05    0.3398E-05    0.9583E-09
  1900.90    0.3373E-05    0.3372E-05    0.9530E-09
  1903.22    0.3348E-05    0.3347E-05    0.9478E-09
  1905.55    0.3323E-05    0.3322E-05    0.9427E-09
  1907.87    0.3299E-05    0.3298E-05    0.9378E-09
  1910.20    0.3275E-05    0.3274E-05    0.9331E-09
  1912.52    0.3252E-05    0.3252E-05    0.9285E-09
  1914.85    0.3230E-05    0.3229E-05    0.9240E-09
  1917.17    0.3208E-05    0.3207E-05    0.9196E-09
  1919.50    0.3187E-05    0.3186E-05    0.9153E-09
  1921.82    0.3166E-05    0.3166E-05    0.9112E-09
  1924.15    0.3146E-05    0.3145E-05    0.9072E-09
  1926.47    0.3127E-05    0.3126E-05    0.9033E-09
  1928.79    0.3107E-05    0.3107E-05    0.8995E-09
  1931.12    0.3089E-05    0.3088E-05    0.8958E-09
  1933.44    0.3070E-05    0.3070E-05    0.8923E-09
  1935.77    0.3053E-05    0.3052E-05    0.8888E-09
  1938.09    0.3035E-05    0.3034E-05    0.8855E-09
  1940.42    0.3018E-05    0.3017E-05    0.8822E-09
  1942.74    0.3002E-05    0.3001E-05    0.8790E-09
  1945.07    0.2986E-05    0.2985E-05    0.8759E-09
  1947.39    0.2970E-05    0.2969E-05    0.8730E-09
  1949.72    0.2955E-05    0.2954E-05    0.8701E-09
  1952.04    0.2940E-05    0.2939E-05    0.8672E-09
  1954.37    0.2925E-05    0.2924E-05    0.8645E-09
  1956.69    0.2911E-05    0.2910E-05    0.8619E-09
  1959.02    0.2897E-05    0.2896E-05    0.8593E-09
  1961.34    0.2883E-05    0.2883E-05    0.8568E-09
  1963.67    0.2870E-05    0.2869E-05    0.8544E-09
  1965.99    0.2857E-05    0.2857E-05    0.8521E-09
  1968.32    0.2845E-05    0.2844E-05    0.8499E-09
  1970.64    0.2833E-05    0.2832E-05    0.8477E-09
  1972.96    0.2821E-05    0.2820E-05    0.8456E-09
  1975.29    0.2809E-05    0.2808E-05    0.8435E-09
  1977.61    0.2798E-05    0.2797E-05    0.8416E-09
  1979.94    0.2787E-05    0.2786E-05    0.8397E-09
  1982.26    0.2776E-05    0.2775E-05    0.8378E-09
  1984.59    0.2766E-05    0.2765E-05    0.8361E-09
  1986.91    0.2755E-05    0.2754E-05    0.8344E-09
  1989.24    0.2745E-05    0.2745E-05    0.8327E-09
  1991.56    0.2736E-05    0.2735E-05    0.8311E-09
  1993.89    0.2726E-05    0.2725E-05    0.8296E-09
  1996.21    0.2717E-05    0.2716E-05    0.8281E-09
  1998.54    0.2708E-05    0.2707E-05    0.8267E-09
  2000.86    0.2699E-05    0.2699E-05    0.8253E-09
  2003.19    0.2691E-05    0.2690E-05    0.8240E-09
  2005.51    0.2683E-05    0.2682E-05    0.8228E-09
  2007.84    0.2675E-05    0.2674E-05    0.8216E-09
  2010.16    0.2667E-05    0.2666E-05    0.8205E-09
  2012.49    0.2659E-05    0.2658E-05    0.8194E-09
  2014.81    0.2652E-05    0.2651E-05    0.8183E-09
  2017.14    0.2645E-05    0.2644E-05    0.8173E-09
  2019.46    0.2638E-05    0.2637E-05    0.8164E-09
  2021.78    0.2631E-05    0.2630E-05    0.8155E-09
  2024.11    0.2624E-05    0.2623E-05    0.8146E-09
  2026.43    0.2618E-05    0.2617E-05    0.8138E-09
  2028.76    0.2612E-05    0.2611E-05    0.8130E-09
  2031.08    0.2606E-05    0.2605E-05    0.8123E-09
  2033.41    0.2600E-05    0.2599E-05    0.8116E-09
  2035.73    0.2594E-05    0.2593E-05    0.8110E-09
  2038.06    0.2589E-05    0.2588E-05    0.8104E-09
  2040.38    0.2583E-05    0.2583E-05    0.8099E-09
  2042.71    0.2578E-05    0.2577E-05    0.8094E-09
  2045.03    0.2573E-05    0.2572E-05    0.8089E-09
  2047.36    0.2568E-05    0.2568E-05    0.8085E-09
  2049.68    0.2564E-05    0.2563E-05    0.8081E-09
  2052.01    0.2559E-05    0.2558E-05    0.8077E-09
  2054.33    0.2555E-05    0.2554E-05    0.8074E-09
  2056.66    0.2551E-05    0.2550E-05    0.8071E-09
  2058.98    0.2547E-05    0.2546E-05    0.8069E-09
  2061.31    0.2543E-05    0.2542E-05    0.8067E-09
  2063.63    0.2539E-05    0.2538E-05    0.8065E-09
  2065.95    0.2535E-05    0.2535E-05    0.8064E-09
  2068.28    0.2532E-05    0.2531E-05    0.8063E-09
  2070.60    0.2529E-05    0.2528E-05    0.8062E-09
  2072.93    0.2525E-05    0.2525E-05    0.8062E-09
  2075.25    0.2522E-05    0.2522E-05    0.8062E-09
  2077.58    0.2520E-05    0.2519E-05    0.8062E-09
  2079.90    0.2517E-05    0.2516E-05    0.8063E-09
  2082.23    0.2514E-05    0.2513E-05    0.8064E-09
  2084.55    0.2512E-05    0.2511E-05    0.8065E-09
  2086.88    0.2509E-05    0.2508E-05    0.8067E-09
  2089.20    0.2507E-05    0.2506E-05    0.8069E-09
  2091.53    0.2505E-05    0.2504E-05    0.8071E-09
  2093.85    0.2503E-05    0.2502E-05    0.8073E-09
  2096.18    0.2501E-05    0.2500E-05    0.8076E-09
  2098.50    0.2499E-05    0.2498E-05    0.8079E-09
  2100.83    0.2497E-05    0.2496E-05    0.8083E-09
  2103.15    0.2496E-05    0.2495E-05    0.8086E-09
  2105.48    0.2494E-05    0.2493E-05    0.8090E-09
  2107.80    0.2493E-05    0.2492E-05    0.8095E-09
  2110.13    0.2492E-05    0.2491E-05    0.8099E-09
  2112.45    0.2490E-05    0.2490E-05    0.8104E-09
  2114.77    0.2489E-05    0.2489E-05    0.8109E-09
  2117.10    0.2488E-05    0.2488E-05    0.8114E-09
  2119.42    0.2488E-05    0.2487E-05    0.8120E-09
  2121.75    0.2487E-05    0.2486E-05    0.8126E-09
  2124.07    0.2486E-05    0.2485E-05    0.8132E-09
  2126.40    0.2486E-05    0.2485E-05    0.8138E-09
  2128.72    0.2485E-05    0.2484E-05    0.8145E-09
  2131.05    0.2485E-05    0.2484E-05    0.8152E-09
  2133.37    0.2485E-05    0.2484E-05    0.8159E-09
  2135.70    0.2485E-05    0.2484E-05    0.8166E-09
  2138.02    0.2485E-05    0.2484E-05    0.8174E-09
  2140.35    0.2485E-05    0.2484E-05    0.8182E-09
  2142.67    0.2485E-05    0.2484E-05    0.8190E-09
  2145.00    0.2485E-05    0.2484E-05    0.8198E-09
  2147.32    0.2485E-05    0.2485E-05    0.8207E-09
  2149.65    0.2486E-05    0.2485E-05    0.8216E-09
  2151.97    0.2486E-05    0.2485E-05    0.8225E-09
  2154.30    0.2487E-05    0.2486E-05    0.8234E-09
  2156.62    0.2488E-05    0.2487E-05    0.8244E-09
  2158.94    0.2488E-05    0.2487E-05    0.8253E-09
  2161.27    0.2489E-05    0.2488E-05    0.8264E-09
  2163.59    0.2490E-05    0.2489E-05    0.8274E-09
  2165.92    0.2491E-05    0.2490E-05    0.8284E-09
  2168.24    0.2492E-05    0.2491E-05    0.8295E-09
  2170.57    0.2493E-05    0.2493E-05    0.8306E-09
  2172.89    0.2495E-05    0.2494E-05    0.8317E-09
  2175.22    0.2496E-05    0.2495E-05    0.8328E-09
  2177.54    0.2497E-05    0.2497E-05    0.8340E-09
  2179.87    0.2499E-05    0.2498E-05    0.8352E-09
  2182.19    0.2501E-05    0.2500E-05    0.8364E-09
  2184.52    0.2502E-05    0.2501E-05    0.8376E-09
  2186.84    0.2504E-05    0.2503E-05    0.8388E-09
  2189.17    0.2506E-05    0.2505E-05    0.8401E-09
  2191.49    0.2508E-05    0.2507E-05    0.8414E-09
  2193.82    0.2510E-05    0.2509E-05    0.8427E-09
  2196.14    0.2512E-05    0.2511E-05    0.8440E-09
  2198.47    0.2514E-05    0.2513E-05    0.8454E-09
  2200.79    0.2516E-05    0.2515E-05    0.8467E-09
  2203.11    0.2518E-05    0.2517E-05    0.8481E-09
  2205.44    0.2521E-05    0.2520E-05    0.8495E-09
  2207.76    0.2523E-05    0.2522E-05    0.8510E-09
  2210.09    0.2526E-05    0.2525E-05    0.8524E-09
  2212.41    0.2528E-05    0.2527E-05    0.8539E-09
  2214.74    0.2531E-05    0.2530E-05    0.8554E-09
  2217.06    0.2533E-05    0.2533E-05    0.8569E-09
  2219.39    0.2536E-05    0.2535E-05    0.8584E-09
  2221.71    0.2539E-05    0.2538E-05    0.8600E-09
  2224.04    0.2542E-05    0.2541E-05    0.8615E-09
  2226.36    0.2545E-05    0.2544E-05    0.8631E-09
  2228.69    0.2548E-05    0.2547E-05    0.8647E-09
  2231.01    0.2551E-05    0.2550E-05    0.8664E-09
  2233.34    0.2554E-05    0.2553E-05    0.8680E-09
  2235.66    0.2558E-05    0.2557E-05    0.8697E-09
  2237.99    0.2561E-05    0.2560E-05    0.8714E-09
  2240.31    0.2564E-05    0.2563E-05    0.8731E-09
  2242.64    0.2568E-05    0.2567E-05    0.8748E-09
  2244.96    0.2571E-05    0.2570E-05    0.8766E-09
  2247.29    0.2575E-05    0.2574E-05    0.8784E-09
  2249.61    0.2579E-05    0.2578E-05    0.8801E-09
  2251.93    0.2582E-05    0.2581E-05    0.8820E-09
  2254.26    0.2586E-05    0.2585E-05    0.8838E-09
  2256.58    0.2590E-05    0.2589E-05    0.8856E-09
  2258.91    0.2594E-05    0.2593E-05    0.8875E-09
  2261.23    0.2598E-05    0.2597E-05    0.8894E-09
  2263.56    0.2602E-05    0.2601E-05    0.8913E-09
  2265.88    0.2606E-05    0.2605E-05    0.8932E-09
  2268.21    0.2610E-05    0.2609E-05    0.8952E-09
  2270.53    0.2615E-05    0.2614E-05    0.8971E-09
  2272.86    0.2619E-05    0.2618E-05    0.8991E-09
  2275.18    0.2623E-05    0.2622E-05    0.9011E-09
  2277.51    0.2628E-05    0.2627E-05    0.9031E-09
  2279.83    0.2632E-05    0.2631E-05    0.9052E-09
  2282.16    0.2637E-05    0.2636E-05    0.9072E-09
  2284.48    0.2641E-05    0.2640E-05    0.9093E-09
  2286.81    0.2646E-05    0.2645E-05    0.9114E-09
  2289.13    0.2651E-05    0.2650E-05    0.9136E-09
  2291.46    0.2656E-05    0.2655E-05    0.9157E-09
  2293.78    0.2661E-05    0.2660E-05    0.9179E-09
  2296.10    0.2666E-05    0.2665E-05    0.9200E-09
  2298.43    0.2671E-05    0.2670E-05    0.9222E-09
  2300.75    0.2676E-05    0.2675E-05    0.9244E-09
  2303.08    0.2681E-05    0.2680E-05    0.9267E-09
  2305.40    0.2686E-05    0.2685E-05    0.9289E-09
  2307.73    0.2691E-05    0.2690E-05    0.9312E-09
  2310.05    0.2697E-05    0.2696E-05    0.9335E-09
  2312.38    0.2702E-05    0.2701E-05    0.9358E-09
  2314.70    0.2707E-05    0.2706E-05    0.9382E-09
  2317.03    0.2713E-05    0.2712E-05    0.9405E-09
  2319.35    0.2718E-05    0.2718E-05    0.9429E-09
  2321.68    0.2724E-05    0.2723E-05    0.9453E-09
  2324.00    0.2730E-05    0.2729E-05    0.9477E-09
  2326.33    0.2736E-05    0.2735E-05    0.9501E-09
  2328.65    0.2741E-05    0.2740E-05    0.9526E-09
  2330.98    0.2747E-05    0.2746E-05    0.9551E-09
  2333.30    0.2753E-05    0.2752E-05    0.9576E-09
  2335.63    0.2759E-05    0.2758E-05    0.9601E-09
  2337.95    0.2765E-05    0.2764E-05    0.9626E-09
  2340.28    0.2772E-05    0.2771E-05    0.9652E-09
  2342.60    0.2778E-05    0.2777E-05    0.9678E-09
  2344.92    0.2784E-05    0.2783E-05    0.9703E-09
  2347.25    0.2790E-05    0.2789E-05    0.9730E-09
  2349.57    0.2797E-05    0.2796E-05    0.9756E-09
  2351.90    0.2803E-05    0.2802E-05    0.9783E-09
  2354.22    0.2810E-05    0.2809E-05    0.9809E-09
  2356.55    0.2816E-05    0.2815E-05    0.9836E-09
  2358.87    0.2823E-05    0.2822E-05    0.9863E-09
  2361.20    0.2830E-05    0.2829E-05    0.9891E-09
  2363.52    0.2836E-05    0.2835E-05    0.9918E-09
  2365.85    0.2843E-05    0.2842E-05    0.9946E-09
  2368.17    0.2850E-05    0.2849E-05    0.9974E-09
  2370.50    0.2857E-05    0.2856E-05    0.1000E-08
  2372.82    0.2864E-05    0.2863E-05    0.1003E-08
  2375.15    0.2871E-05    0.2870E-05    0.1006E-08
  2377.47    0.2878E-05    0.2877E-05    0.1009E-08
  2379.80    0.2886E-05    0.2885E-05    0.1012E-08
  2382.12    0.2893E-05    0.2892E-05    0.1015E-08
  2384.45    0.2900E-05    0.2899E-05    0.1018E-08
  2386.77    0.2908E-05    0.2907E-05    0.1021E-08
  2389.09    0.2915E-05    0.2914E-05    0.1024E-08
  2391.42    0.2923E-05    0.2922E-05    0.1027E-08
  2393.74    0.2930E-05    0.2929E-05    0.1030E-08
  2396.07    0.2938E-05    0.2937E-05    0.1033E-08
  2398.39    0.2946E-05    0.2945E-05    0.1036E-08
  2400.72    0.2954E-05    0.2953E-05    0.1039E-08
  2403.04    0.2962E-05    0.2960E-05    0.1042E-08
  2405.37    0.2969E-05    0.2968E-05    0.1045E-08
  2407.69    0.2977E-05    0.2976E-05    0.1048E-08
  2410.02    0.2986E-05    0.2984E-05    0.1052E-08
  2412.34    0.2994E-05    0.2993E-05    0.1055E-08
  2414.67    0.3002E-05    0.3001E-05    0.1058E-08
  2416.99    0.3010E-05    0.3009E-05    0.1061E-08
  2419.32    0.3019E-05    0.3017E-05    0.1065E-08
  2421.64    0.3027E-05    0.3026E-05    0.1068E-08
  2423.97    0.3035E-05    0.3034E-05    0.1071E-08
  2426.29    0.3044E-05    0.3043E-05    0.1075E-08
  2428.62    0.3053E-05    0.3052E-05    0.1078E-08
  2430.94    0.3061E-05    0.3060E-05    0.1081E-08
  2433.26    0.3070E-05    0.3069E-05    0.1085E-08
  2435.59    0.3079E-05    0.3078E-05    0.1088E-08
  2437.91    0.3088E-05    0.3087E-05    0.1092E-08
  2440.24    0.3097E-05    0.3096E-05    0.1095E-08
  2442.56    0.3106E-05    0.3105E-05    0.1099E-08
  2444.89    0.3115E-05    0.3114E-05    0.1102E-08
  2447.21    0.3124E-05    0.3123E-05    0.1106E-08
  2449.54    0.3133E-05    0.3132E-05    0.1109E-08
  2451.86    0.3143E-05    0.3142E-05    0.1113E-08
  2454.19    0.3152E-05    0.3151E-05    0.1117E-08
  2456.51    0.3162E-05    0.3160E-05    0.1120E-08
  2458.84    0.3171E-05    0.3170E-05    0.1124E-08
  2461.16    0.3181E-05    0.3180E-05    0.1128E-08
  2463.49    0.3190E-05    0.3189E-05    0.1131E-08
  2465.81    0.3200E-05    0.3199E-05    0.1135E-08
  2468.14    0.3210E-05    0.3209E-05    0.1139E-08
  2470.46    0.3220E-05    0.3219E-05    0.1143E-08
  2472.79    0.3230E-05    0.3229E-05    0.1147E-08
  2475.11    0.3240E-05    0.3239E-05    0.1151E-08
  2477.44    0.3250E-05    0.3249E-05    0.1154E-08
  2479.76    0.3260E-05    0.3259E-05    0.1158E-08
  2482.08    0.3271E-05    0.3269E-05    0.1162E-08
  2484.41    0.3281E-05    0.3280E-05    0.1166E-08
  2486.73    0.3291E-05    0.3290E-05    0.1170E-08
  2489.06    0.3302E-05    0.3301E-05    0.1174E-08
  2491.38    0.3313E-05    0.3311E-05    0.1178E-08
  2493.71    0.3323E-05    0.3322E-05    0.1182E-08
  2496.03    0.3334E-05    0.3333E-05    0.1187E-08
  2498.36    0.3345E-05    0.3344E-05    0.1191E-08
  2500.68    0.3356E-05    0.3355E-05    0.1195E-08
  2503.01    0.3367E-05    0.3366E-05    0.1199E-08
  2505.33    0.3378E-05    0.3377E-05    0.1203E-08
  2507.66    0.3389E-05    0.3388E-05    0.1208E-08
  2509.98    0.3400E-05    0.3399E-05    0.1212E-08
  2512.31    0.3412E-05    0.3410E-05    0.1216E-08
  2514.63    0.3423E-05    0.3422E-05    0.1220E-08
  2516.96    0.3435E-05    0.3433E-05    0.1225E-08
  2519.28    0.3446E-05    0.3445E-05    0.1229E-08
  2521.61    0.3458E-05    0.3457E-05    0.1234E-08
  2523.93    0.3470E-05    0.3468E-05    0.1238E-08
  2526.25    0.3481E-05    0.3480E-05    0.1243E-08
  2528.58    0.3493E-05    0.3492E-05    0.1247E-08
  2530.90    0.3505E-05    0.3504E-05    0.1252E-08
  2533.23    0.3517E-05    0.3516E-05    0.1256E-08
  2535.55    0.3530E-05    0.3528E-05    0.1261E-08
  2537.88    0.3542E-05    0.3541E-05    0.1266E-08
  2540.20    0.3554E-05    0.3553E-05    0.1270E-08
  2542.53    0.3567E-05    0.3565E-05    0.1275E-08
  2544.85    0.3579E-05    0.3578E-05    0.1280E-08
  2547.18    0.3592E-05    0.3590E-05    0.1284E-08
  2549.50    0.3605E-05    0.3603E-05    0.1289E-08
  2551.83    0.3617E-05    0.3616E-05    0.1294E-08
  2554.15    0.3630E-05    0.3629E-05    0.1299E-08
  2556.48    0.3643E-05    0.3642E-05    0.1304E-08
  2558.80    0.3656E-05    0.3655E-05    0.1309E-08
  2561.13    0.3669E-05    0.3668E-05    0.1314E-08
  2563.45    0.3683E-05    0.3681E-05    0.1319E-08
  2565.78    0.3696E-05    0.3695E-05    0.1324E-08
  2568.10    0.3710E-05    0.3708E-05    0.1329E-08
  2570.43    0.3723E-05    0.3722E-05    0.1334E-08
  2572.75    0.3737E-05    0.3736E-05    0.1339E-08
  2575.07    0.3751E-05    0.3749E-05    0.1344E-08
  2577.40    0.3764E-05    0.3763E-05    0.1349E-08
  2579.72    0.3778E-05    0.3777E-05    0.1355E-08
  2582.05    0.3793E-05    0.3791E-05    0.1360E-08
  2584.37    0.3807E-05    0.3805E-05    0.1365E-08
  2586.70    0.3821E-05    0.3820E-05    0.1371E-08
  2589.02    0.3835E-05    0.3834E-05    0.1376E-08
  2591.35    0.3850E-05    0.3848E-05    0.1381E-08
  2593.67    0.3864E-05    0.3863E-05    0.1387E-08
  2596.00    0.3879E-05    0.3878E-05    0.1392E-08
  2598.32    0.3894E-05    0.3892E-05    0.1398E-08
  2600.65    0.3909E-05    0.3907E-05    0.1404E-08
  2602.97    0.3924E-05    0.3922E-05    0.1409E-08
  2605.30    0.3939E-05    0.3937E-05    0.1415E-08
  2607.62    0.3954E-05    0.3953E-05    0.1421E-08
  2609.95    0.3969E-05    0.3968E-05    0.1426E-08
  2612.27    0.3985E-05    0.3983E-05    0.1432E-08
  2614.60    0.4000E-05    0.3999E-05    0.1438E-08
  2616.92    0.4016E-05    0.4015E-05    0.1444E-08
  2619.24    0.4032E-05    0.4030E-05    0.1450E-08
  2621.57    0.4048E-05    0.4046E-05    0.1456E-08
  2623.89    0.4064E-05    0.4062E-05    0.1462E-08
  2626.22    0.4080E-05    0.4078E-05    0.1468E-08
  2628.54    0.4096E-05    0.4095E-05    0.1474E-08
  2630.87    0.4112E-05    0.4111E-05    0.1480E-08
  2633.19    0.4129E-05    0.4127E-05    0.1486E-08
  2635.52    0.4146E-05    0.4144E-05    0.1492E-08
  2637.84    0.4162E-05    0.4161E-05    0.1498E-08
  2640.17    0.4179E-05    0.4178E-05    0.1505E-08
  2642.49    0.4196E-05    0.4195E-05    0.1511E-08
  2644.82    0.4213E-05    0.4212E-05    0.1517E-08
  2647.14    0.4230E-05    0.4229E-05    0.1524E-08
  2649.47    0.4248E-05    0.4246E-05    0.1530E-08
  2651.79    0.4265E-05    0.4264E-05    0.1537E-08
  2654.12    0.4283E-05    0.4281E-05    0.1543E-08
  2656.44    0.4300E-05    0.4299E-05    0.1550E-08
  2658.77    0.4318E-05    0.4317E-05    0.1556E-08
  2661.09    0.4336E-05    0.4335E-05    0.1563E-08
  2663.42    0.4354E-05    0.4353E-05    0.1570E-08
  2665.74    0.4373E-05    0.4371E-05    0.1577E-08
  2668.06    0.4391E-05    0.4389E-05    0.1583E-08
  2670.39    0.4410E-05    0.4408E-05    0.1590E-08
  2672.71    0.4428E-05    0.4427E-05    0.1597E-08
  2675.04    0.4447E-05    0.4445E-05    0.1604E-08
  2677.36    0.4466E-05    0.4464E-05    0.1611E-08
  2679.69    0.4485E-05    0.4483E-05    0.1618E-08
  2682.01    0.4504E-05    0.4503E-05    0.1625E-08
  2684.34    0.4524E-05    0.4522E-05    0.1633E-08
  2686.66    0.4543E-05    0.4541E-05    0.1640E-08
  2688.99    0.4563E-05    0.4561E-05    0.1647E-08
  2691.31    0.4583E-05    0.4581E-05    0.1655E-08
  2693.64    0.4602E-05    0.4601E-05    0.1662E-08
  2695.96    0.4623E-05    0.4621E-05    0.1669E-08
  2698.29    0.4643E-05    0.4641E-05    0.1677E-08
  2700.61    0.4663E-05    0.4662E-05    0.1684E-08
  2702.94    0.4684E-05    0.4682E-05    0.1692E-08
  2705.26    0.4704E-05    0.4703E-05    0.1700E-08
  2707.59    0.4725E-05    0.4724E-05    0.1707E-08
  2709.91    0.4746E-05    0.4745E-05    0.1715E-08
  2712.23    0.4767E-05    0.4766E-05    0.1723E-08
  2714.56    0.4789E-05    0.4787E-05    0.1731E-08
  2716.88    0.4810E-05    0.4809E-05    0.1739E-08
  2719.21    0.4832E-05    0.4830E-05    0.1747E-08
  2721.53    0.4854E-05    0.4852E-05    0.1755E-08
  2723.86    0.4876E-05    0.4874E-05    0.1763E-08
  2726.18    0.4898E-05    0.4896E-05    0.1771E-08
  2728.51    0.4920E-05    0.4918E-05    0.1780E-08
  2730.83    0.4943E-05    0.4941E-05    0.1788E-08
  2733.16    0.4965E-05    0.4964E-05    0.1796E-08
  2735.48    0.4988E-05    0.4986E-05    0.1805E-08
  2737.81    0.5011E-05    0.5009E-05    0.1813E-08
  2740.13    0.5034E-05    0.5033E-05    0.1822E-08
  2742.46    0.5058E-05    0.5056E-05    0.1831E-08
  2744.78    0.5081E-05    0.5080E-05    0.1839E-08
  2747.11    0.5105E-05    0.5103E-05    0.1848E-08
  2749.43    0.5129E-05    0.5127E-05    0.1857E-08
  2751.76    0.5153E-05    0.5151E-05    0.1866E-08
  2754.08    0.5177E-05    0.5176E-05    0.1875E-08
  2756.40    0.5202E-05    0.5200E-05    0.1884E-08
  2758.73    0.5227E-05    0.5225E-05    0.1893E-08
  2761.05    0.5252E-05    0.5250E-05    0.1902E-08
  2763.38    0.5277E-05    0.5275E-05    0.1911E-08
  2765.70    0.5302E-05    0.5300E-05    0.1921E-08
  2768.03    0.5327E-05    0.5325E-05    0.1930E-08
  2770.35    0.5353E-05    0.5351E-05    0.1940E-08
  2772.68    0.5379E-05    0.5377E-05    0.1949E-08
  2775.00    0.5405E-05    0.5403E-05    0.1959E-08
  2777.33    0.5431E-05    0.5429E-05    0.1968E-08
  2779.65    0.5458E-05    0.5456E-05    0.1978E-08
  2781.98    0.5484E-05    0.5482E-05    0.1988E-08
  2784.30    0.5511E-05    0.5509E-05    0.1998E-08
  2786.63    0.5538E-05    0.5536E-05    0.2008E-08
  2788.95    0.5566E-05    0.5564E-05    0.2018E-08
  2791.28    0.5593E-05    0.5591E-05    0.2028E-08
  2793.60    0.5621E-05    0.5619E-05    0.2038E-08
  2795.93    0.5649E-05    0.5647E-05    0.2049E-08
  2798.25    0.5677E-05    0.5675E-05    0.2059E-08
  2800.58    0.5706E-05    0.5704E-05    0.2070E-08
  2802.90    0.5735E-05    0.5732E-05    0.2080E-08
  2805.22    0.5764E-05    0.5761E-05    0.2091E-08
  2807.55    0.5793E-05    0.5791E-05    0.2102E-08
  2809.87    0.5822E-05    0.5820E-05    0.2113E-08
  2812.20    0.5852E-05    0.5850E-05    0.2123E-08
  2814.52    0.5882E-05    0.5880E-05    0.2134E-08
  2816.85    0.5912E-05    0.5910E-05    0.2146E-08
  2819.17    0.5942E-05    0.5940E-05    0.2157E-08
  2821.50    0.5973E-05    0.5971E-05    0.2168E-08
  2823.82    0.6004E-05    0.6002E-05    0.2179E-08
  2826.15    0.6035E-05    0.6033E-05    0.2191E-08
  2828.47    0.6066E-05    0.6064E-05    0.2202E-08
  2830.80    0.6098E-05    0.6096E-05    0.2214E-08
  2833.12    0.6130E-05    0.6128E-05    0.2226E-08
  2835.45    0.6162E-05    0.6160E-05    0.2238E-08
  2837.77    0.6195E-05    0.6192E-05    0.2250E-08
  2840.10    0.6227E-05    0.6225E-05    0.2262E-08
  2842.42    0.6260E-05    0.6258E-05    0.2274E-08
  2844.75    0.6294E-05    0.6291E-05    0.2286E-08
  2847.07    0.6327E-05    0.6325E-05    0.2299E-08
  2849.39    0.6361E-05    0.6359E-05    0.2311E-08
  2851.72    0.6395E-05    0.6393E-05    0.2324E-08
  2854.04    0.6430E-05    0.6427E-05    0.2336E-08
  2856.37    0.6464E-05    0.6462E-05    0.2349E-08
  2858.69    0.6500E-05    0.6497E-05    0.2362E-08
  2861.02    0.6535E-05    0.6533E-05    0.2375E-08
  2863.34    0.6571E-05    0.6568E-05    0.2388E-08
  2865.67    0.6607E-05    0.6604E-05    0.2401E-08
  2867.99    0.6643E-05    0.6640E-05    0.2415E-08
  2870.32    0.6679E-05    0.6677E-05    0.2428E-08
  2872.64    0.6716E-05    0.6714E-05    0.2442E-08
  2874.97    0.6754E-05    0.6751E-05    0.2455E-08
  2877.29    0.6791E-05    0.6789E-05    0.2469E-08
  2879.62    0.6829E-05    0.6827E-05    0.2483E-08
  2881.94    0.6867E-05    0.6865E-05    0.2497E-08
  2884.27    0.6906E-05    0.6903E-05    0.2511E-08
  2886.59    0.6945E-05    0.6942E-05    0.2526E-08
  2888.92    0.6984E-05    0.6981E-05    0.2540E-08
  2891.24    0.7024E-05    0.7021E-05    0.2555E-08
  2893.57    0.7064E-05    0.7061E-05    0.2569E-08
  2895.89    0.7104E-05    0.7101E-05    0.2584E-08
  2898.21    0.7145E-05    0.7142E-05    0.2599E-08
  2900.54    0.7186E-05    0.7183E-05    0.2614E-08
  2902.86    0.7227E-05    0.7224E-05    0.2629E-08
  2905.19    0.7269E-05    0.7266E-05    0.2645E-08
  2907.51    0.7311E-05    0.7308E-05    0.2660E-08
  2909.84    0.7354E-05    0.7351E-05    0.2676E-08
  2912.16    0.7396E-05    0.7394E-05    0.2692E-08
  2914.49    0.7440E-05    0.7437E-05    0.2707E-08
  2916.81    0.7484E-05    0.7481E-05    0.2724E-08
  2919.14    0.7528E-05    0.7525E-05    0.2740E-08
  2921.46    0.7572E-05    0.7569E-05    0.2756E-08
  2923.79    0.7617E-05    0.7614E-05    0.2773E-08
  2926.11    0.7663E-05    0.7660E-05    0.2789E-08
  2928.44    0.7708E-05    0.7706E-05    0.2806E-08
  2930.76    0.7755E-05    0.7752E-05    0.2823E-08
  2933.09    0.7801E-05    0.7798E-05    0.2840E-08
  2935.41    0.7848E-05    0.7845E-05    0.2858E-08
  2937.74    0.7896E-05    0.7893E-05    0.2875E-08
  2940.06    0.7944E-05    0.7941E-05    0.2893E-08
  2942.38    0.7992E-05    0.7989E-05    0.2910E-08
  2944.71    0.8041E-05    0.8038E-05    0.2928E-08
  2947.03    0.8091E-05    0.8088E-05    0.2946E-08
  2949.36    0.8140E-05    0.8137E-05    0.2965E-08
  2951.68    0.8191E-05    0.8188E-05    0.2983E-08
  2954.01    0.8242E-05    0.8239E-05    0.3002E-08
  2956.33    0.8293E-05    0.8290E-05    0.3021E-08
  2958.66    0.8345E-05    0.8342E-05    0.3040E-08
  2960.98    0.8397E-05    0.8394E-05    0.3059E-08
  2963.31    0.8450E-05    0.8447E-05    0.3078E-08
  2965.63    0.8503E-05    0.8500E-05    0.3098E-08
  2967.96    0.8557E-05    0.8554E-05    0.3118E-08
  2970.28    0.8611E-05    0.8608E-05    0.3138E-08
  2972.61    0.8666E-05    0.8663E-05    0.3158E-08
  2974.93    0.8722E-05    0.8718E-05    0.3178E-08
  2977.26    0.8778E-05    0.8774E-05    0.3199E-08
  2979.58    0.8834E-05    0.8831E-05    0.3219E-08
  2981.91    0.8891E-05    0.8888E-05    0.3240E-08
  2984.23    0.8949E-05    0.8946E-05    0.3261E-08
  2986.56    0.9007E-05    0.9004E-05    0.3283E-08
  2988.88    0.9066E-05    0.9063E-05    0.3304E-08
  2991.20    0.9126E-05    0.9122E-05    0.3326E-08
  2993.53    0.9186E-05    0.9182E-05    0.3348E-08
  2995.85    0.9246E-05    0.9243E-05    0.3371E-08
  2998.18    0.9308E-05    0.9304E-05    0.3393E-08
  3000.50    0.9370E-05    0.9366E-05    0.3416E-08
  3002.83    0.9432E-05    0.9429E-05    0.3439E-08
  3005.15    0.9495E-05    0.9492E-05    0.3462E-08
  3007.48    0.9559E-05    0.9556E-05    0.3485E-08
  3009.80    0.9624E-05    0.9620E-05    0.3509E-08
  3012.13    0.9689E-05    0.9685E-05    0.3533E-08
  3014.45    0.9755E-05    0.9751E-05    0.3557E-08
  3016.78    0.9821E-05    0.9818E-05    0.3581E-08
  3019.10    0.9889E-05    0.9885E-05    0.3606E-08
  3021.43    0.9957E-05    0.9953E-05    0.3631E-08
  3023.75    0.1003E-04    0.1002E-04    0.3656E-08
  3026.08    0.1009E-04    0.1009E-04    0.3682E-08
  3028.40    0.1017E-04    0.1016E-04    0.3707E-08
  3030.73    0.1024E-04    0.1023E-04    0.3733E-08
  3033.05    0.1031E-04    0.1030E-04    0.3760E-08
  3035.37    0.1038E-04    0.1038E-04    0.3786E-08
  3037.70    0.1045E-04    0.1045E-04    0.3813E-08
  3040.02    0.1053E-04    0.1052E-04    0.3840E-08
  3042.35    0.1060E-04    0.1060E-04    0.3868E-08
  3044.67    0.1068E-04    0.1067E-04    0.3895E-08
  3047.00    0.1075E-04    0.1075E-04    0.3924E-08
  3049.32    0.1083E-04    0.1083E-04    0.3952E-08
  3051.65    0.1091E-04    0.1091E-04    0.3981E-08
  3053.97    0.1099E-04    0.1099E-04    0.4009E-08
  3056.30    0.1107E-04    0.1106E-04    0.4039E-08
  3058.62    0.1115E-04    0.1115E-04    0.4068E-08
  3060.95    0.1123E-04    0.1123E-04    0.4098E-08
  3063.27    0.1131E-04    0.1131E-04    0.4129E-08
  3065.60    0.1140E-04    0.1139E-04    0.4159E-08
  3067.92    0.1148E-04    0.1148E-04    0.4190E-08
  3070.25    0.1157E-04    0.1156E-04    0.4222E-08
  3072.57    0.1165E-04    0.1165E-04    0.4253E-08
  3074.90    0.1174E-04    0.1174E-04    0.4285E-08
  3077.22    0.1183E-04    0.1183E-04    0.4318E-08
  3079.54    0.1192E-04    0.1192E-04    0.4351E-08
  3081.87    0.1201E-04    0.1201E-04    0.4384E-08
  3084.19    0.1210E-04    0.1210E-04    0.4417E-08
  3086.52    0.1219E-04    0.1219E-04    0.4451E-08
  3088.84    0.1229E-04    0.1228E-04    0.4486E-08
  3091.17    0.1238E-04    0.1238E-04    0.4520E-08
  3093.49    0.1248E-04    0.1247E-04    0.4556E-08
  3095.82    0.1258E-04    0.1257E-04    0.4591E-08
  3098.14    0.1267E-04    0.1267E-04    0.4627E-08
  3100.47    0.1277E-04    0.1277E-04    0.4664E-08
  3102.79    0.1287E-04    0.1287E-04    0.4701E-08
  3105.12    0.1298E-04    0.1297E-04    0.4738E-08
  3107.44    0.1308E-04    0.1308E-04    0.4776E-08
  3109.77    0.1318E-04    0.1318E-04    0.4814E-08
  3112.09    0.1329E-04    0.1329E-04    0.4853E-08
  3114.42    0.1340E-04    0.1339E-04    0.4892E-08
  3116.74    0.1351E-04    0.1350E-04    0.4931E-08
  3119.07    0.1361E-04    0.1361E-04    0.4972E-08
  3121.39    0.1373E-04    0.1372E-04    0.5012E-08
  3123.72    0.1384E-04    0.1383E-04    0.5053E-08
  3126.04    0.1395E-04    0.1395E-04    0.5095E-08
  3128.36    0.1407E-04    0.1406E-04    0.5137E-08
  3130.69    0.1418E-04    0.1418E-04    0.5180E-08
  3133.01    0.1430E-04    0.1430E-04    0.5223E-08
  3135.34    0.1442E-04    0.1442E-04    0.5267E-08
  3137.66    0.1454E-04    0.1454E-04    0.5311E-08
  3139.99    0.1466E-04    0.1466E-04    0.5356E-08
  3142.31    0.1479E-04    0.1478E-04    0.5402E-08
  3144.64    0.1492E-04    0.1491E-04    0.5448E-08
  3146.96    0.1504E-04    0.1504E-04    0.5495E-08
  3149.29    0.1517E-04    0.1517E-04    0.5542E-08
  3151.61    0.1530E-04    0.1530E-04    0.5590E-08
  3153.94    0.1544E-04    0.1543E-04    0.5638E-08
  3156.26    0.1557E-04    0.1556E-04    0.5688E-08
  3158.59    0.1571E-04    0.1570E-04    0.5737E-08
  3160.91    0.1584E-04    0.1584E-04    0.5788E-08
  3163.24    0.1598E-04    0.1598E-04    0.5839E-08
  3165.56    0.1613E-04    0.1612E-04    0.5891E-08
  3167.89    0.1627E-04    0.1626E-04    0.5944E-08
  3170.21    0.1641E-04    0.1641E-04    0.5997E-08
  3172.53    0.1656E-04    0.1656E-04    0.6051E-08
  3174.86    0.1671E-04    0.1671E-04    0.6106E-08
  3177.18    0.1686E-04    0.1686E-04    0.6161E-08
  3179.51    0.1702E-04    0.1701E-04    0.6218E-08
  3181.83    0.1717E-04    0.1717E-04    0.6275E-08
  3184.16    0.1733E-04    0.1732E-04    0.6333E-08
  3186.48    0.1749E-04    0.1748E-04    0.6391E-08
  3188.81    0.1765E-04    0.1765E-04    0.6451E-08
  3191.13    0.1782E-04    0.1781E-04    0.6511E-08
  3193.46    0.1799E-04    0.1798E-04    0.6572E-08
  3195.78    0.1815E-04    0.1815E-04    0.6634E-08
  3198.11    0.1833E-04    0.1832E-04    0.6697E-08
  3200.43    0.1850E-04    0.1849E-04    0.6761E-08
  3202.76    0.1868E-04    0.1867E-04    0.6826E-08
  3205.08    0.1886E-04    0.1885E-04    0.6892E-08
  3207.41    0.1904E-04    0.1903E-04    0.6959E-08
  3209.73    0.1923E-04    0.1922E-04    0.7026E-08
  3212.06    0.1941E-04    0.1941E-04    0.7095E-08
  3214.38    0.1960E-04    0.1960E-04    0.7165E-08
  3216.71    0.1980E-04    0.1979E-04    0.7235E-08
  3219.03    0.1999E-04    0.1999E-04    0.7307E-08
  3221.35    0.2019E-04    0.2018E-04    0.7380E-08
  3223.68    0.2039E-04    0.2039E-04    0.7454E-08
  3226.00    0.2060E-04    0.2059E-04    0.7529E-08
  3228.33    0.2081E-04    0.2080E-04    0.7606E-08
  3230.65    0.2102E-04    0.2101E-04    0.7683E-08
  3232.98    0.2123E-04    0.2123E-04    0.7762E-08
  3235.30    0.2145E-04    0.2144E-04    0.7842E-08
  3237.63    0.2167E-04    0.2167E-04    0.7923E-08
  3239.95    0.2190E-04    0.2189E-04    0.8005E-08
  3242.28    0.2213E-04    0.2212E-04    0.8089E-08
  3244.60    0.2236E-04    0.2235E-04    0.8174E-08
  3246.93    0.2260E-04    0.2259E-04    0.8261E-08
  3249.25    0.2284E-04    0.2283E-04    0.8348E-08
  3251.58    0.2308E-04    0.2307E-04    0.8438E-08
  3253.90    0.2333E-04    0.2332E-04    0.8528E-08
  3256.23    0.2358E-04    0.2357E-04    0.8620E-08
  3258.55    0.2384E-04    0.2383E-04    0.8714E-08
  3260.88    0.2410E-04    0.2409E-04    0.8809E-08
  3263.20    0.2436E-04    0.2435E-04    0.8906E-08
  3265.52    0.2463E-04    0.2462E-04    0.9005E-08
  3267.85    0.2490E-04    0.2489E-04    0.9105E-08
  3270.17    0.2518E-04    0.2517E-04    0.9206E-08
  3272.50    0.2546E-04    0.2545E-04    0.9310E-08
  3274.82    0.2575E-04    0.2574E-04    0.9415E-08
  3277.15    0.2604E-04    0.2603E-04    0.9522E-08
  3279.47    0.2634E-04    0.2633E-04    0.9631E-08
  3281.80    0.2664E-04    0.2663E-04    0.9742E-08
  3284.12    0.2695E-04    0.2694E-04    0.9855E-08
  3286.45    0.2726E-04    0.2725E-04    0.9970E-08
  3288.77    0.2758E-04    0.2757E-04    0.1009E-07
  3291.10    0.2791E-04    0.2790E-04    0.1021E-07
  3293.42    0.2824E-04    0.2823E-04    0.1033E-07
  3295.75    0.2858E-04    0.2857E-04    0.1045E-07
  3298.07    0.2892E-04    0.2891E-04    0.1057E-07
  3300.40    0.2927E-04    0.2926E-04    0.1070E-07
  3302.72    0.2962E-04    0.2961E-04    0.1083E-07
  3305.05    0.2998E-04    0.2997E-04    0.1097E-07
  3307.37    0.3035E-04    0.3034E-04    0.1110E-07
  3309.70    0.3073E-04    0.3072E-04    0.1124E-07
  3312.02    0.3111E-04    0.3110E-04    0.1138E-07
  3314.34    0.3150E-04    0.3149E-04    0.1152E-07
  3316.67    0.3190E-04    0.3189E-04    0.1167E-07
  3318.99    0.3230E-04    0.3229E-04    0.1181E-07
  3321.32    0.3272E-04    0.3270E-04    0.1196E-07
  3323.64    0.3314E-04    0.3312E-04    0.1212E-07
  3325.97    0.3357E-04    0.3355E-04    0.1228E-07
  3328.29    0.3400E-04    0.3399E-04    0.1244E-07
  3330.62    0.3445E-04    0.3444E-04    0.1260E-07
  3332.94    0.3490E-04    0.3489E-04    0.1277E-07
  3335.27    0.3537E-04    0.3536E-04    0.1294E-07
  3337.59    0.3584E-04    0.3583E-04    0.1311E-07
  3339.92    0.3633E-04    0.3631E-04    0.1329E-07
  3342.24    0.3682E-04    0.3681E-04    0.1347E-07
  3344.57    0.3732E-04    0.3731E-04    0.1365E-07
  3346.89    0.3784E-04    0.3782E-04    0.1384E-07
  3349.22    0.3836E-04    0.3835E-04    0.1403E-07
  3351.54    0.3890E-04    0.3888E-04    0.1423E-07
  3353.87    0.3945E-04    0.3943E-04    0.1443E-07
  3356.19    0.4000E-04    0.3999E-04    0.1463E-07
  3358.51    0.4058E-04    0.4056E-04    0.1484E-07
  3360.84    0.4116E-04    0.4114E-04    0.1506E-07
  3363.16    0.4176E-04    0.4174E-04    0.1527E-07
  3365.49    0.4237E-04    0.4235E-04    0.1550E-07
  3367.81    0.4299E-04    0.4297E-04    0.1572E-07
  3370.14    0.4363E-04    0.4361E-04    0.1596E-07
  3372.46    0.4428E-04    0.4426E-04    0.1620E-07
  3374.79    0.4494E-04    0.4493E-04    0.1644E-07
  3377.11    0.4563E-04    0.4561E-04    0.1669E-07
  3379.44    0.4632E-04    0.4631E-04    0.1694E-07
  3381.76    0.4704E-04    0.4702E-04    0.1721E-07
  3384.09    0.4777E-04    0.4775E-04    0.1747E-07
  3386.41    0.4852E-04    0.4850E-04    0.1775E-07
  3388.74    0.4928E-04    0.4926E-04    0.1803E-07
  3391.06    0.5007E-04    0.5005E-04    0.1831E-07
  3393.39    0.5087E-04    0.5085E-04    0.1861E-07
  3395.71    0.5169E-04    0.5167E-04    0.1891E-07
  3398.04    0.5253E-04    0.5252E-04    0.1922E-07
  3400.36    0.5340E-04    0.5338E-04    0.1953E-07
  3402.68    0.5428E-04    0.5427E-04    0.1986E-07
  3405.01    0.5519E-04    0.5517E-04    0.2019E-07
  3407.33    0.5613E-04    0.5610E-04    0.2053E-07
  3409.66    0.5708E-04    0.5706E-04    0.2088E-07
  3411.98    0.5806E-04    0.5804E-04    0.2124E-07
  3414.31    0.5907E-04    0.5905E-04    0.2161E-07
  3416.63    0.6010E-04    0.6008E-04    0.2199E-07
  3418.96    0.6116E-04    0.6114E-04    0.2237E-07
  3421.28    0.6225E-04    0.6223E-04    0.2277E-07
  3423.61    0.6337E-04    0.6335E-04    0.2318E-07
  3425.93    0.6452E-04    0.6450E-04    0.2360E-07
  3428.26    0.6570E-04    0.6568E-04    0.2404E-07
  3430.58    0.6691E-04    0.6689E-04    0.2448E-07
  3432.91    0.6816E-04    0.6814E-04    0.2494E-07
  3435.23    0.6945E-04    0.6942E-04    0.2541E-07
  3437.56    0.7077E-04    0.7074E-04    0.2589E-07
  3439.88    0.7213E-04    0.7210E-04    0.2639E-07
  3442.21    0.7353E-04    0.7350E-04    0.2690E-07
  3444.53    0.7497E-04    0.7494E-04    0.2743E-07
  3446.86    0.7646E-04    0.7643E-04    0.2797E-07
  3449.18    0.7799E-04    0.7796E-04    0.2853E-07
  3451.50    0.7956E-04    0.7954E-04    0.2911E-07
  3453.83    0.8119E-04    0.8116E-04    0.2970E-07
  3456.15    0.8287E-04    0.8284E-04    0.3032E-07
  3458.48    0.8460E-04    0.8457E-04    0.3095E-07
  3460.80    0.8638E-04    0.8635E-04    0.3160E-07
  3463.13    0.8822E-04    0.8819E-04    0.3228E-07
  3465.45    0.9013E-04    0.9009E-04    0.3297E-07
  3467.78    0.9209E-04    0.9206E-04    0.3369E-07
  3470.10    0.9413E-04    0.9409E-04    0.3444E-07
  3472.43    0.9623E-04    0.9619E-04    0.3521E-07
  3474.75    0.9840E-04    0.9836E-04    0.3600E-07
  3477.08    0.1006E-03    0.1006E-03    0.3682E-07
  3479.40    0.1030E-03    0.1029E-03    0.3767E-07
  3481.73    0.1054E-03    0.1053E-03    0.3856E-07
  3484.05    0.1079E-03    0.1078E-03    0.3947E-07
  3486.38    0.1105E-03    0.1104E-03    0.4041E-07
  3488.70    0.1131E-03    0.1131E-03    0.4140E-07
  3491.03    0.1159E-03    0.1159E-03    0.4241E-07
  3493.35    0.1188E-03    0.1188E-03    0.4347E-07
  3495.67    0.1218E-03    0.1218E-03    0.4457E-07
  3498.00    0.1249E-03    0.1249E-03    0.4571E-07
  3500.32    0.1282E-03    0.1281E-03    0.4689E-07
  3502.65    0.1315E-03    0.1315E-03    0.4812E-07
  3504.97    0.1350E-03    0.1350E-03    0.4940E-07
  3507.30    0.1387E-03    0.1386E-03    0.5073E-07
  3509.62    0.1425E-03    0.1424E-03    0.5212E-07
  3511.95    0.1464E-03    0.1464E-03    0.5357E-07
  3514.27    0.1505E-03    0.1505E-03    0.5508E-07
  3516.60    0.1548E-03    0.1548E-03    0.5665E-07
  3518.92    0.1593E-03    0.1593E-03    0.5830E-07
  3521.25    0.1640E-03    0.1640E-03    0.6001E-07
  3523.57    0.1689E-03    0.1689E-03    0.6181E-07
  3525.90    0.1741E-03    0.1740E-03    0.6369E-07
  3528.22    0.1794E-03    0.1794E-03    0.6565E-07
  3530.55    0.1851E-03    0.1850E-03    0.6771E-07
  3532.87    0.1910E-03    0.1909E-03    0.6987E-07
  3535.20    0.1972E-03    0.1971E-03    0.7213E-07
  3537.52    0.2037E-03    0.2036E-03    0.7451E-07
  3539.85    0.2105E-03    0.2104E-03    0.7701E-07
  3542.17    0.2177E-03    0.2176E-03    0.7964E-07
  3544.49    0.2252E-03    0.2252E-03    0.8241E-07
  3546.82    0.2332E-03    0.2331E-03    0.8533E-07
  3549.14    0.2416E-03    0.2415E-03    0.8840E-07
  3551.47    0.2505E-03    0.2504E-03    0.9165E-07
  3553.79    0.2599E-03    0.2598E-03    0.9508E-07
  3556.12    0.2698E-03    0.2697E-03    0.9871E-07
  3558.44    0.2803E-03    0.2802E-03    0.1026E-06
  3560.77    0.2915E-03    0.2914E-03    0.1066E-06
  3563.09    0.3033E-03    0.3032E-03    0.1110E-06
  3565.42    0.3159E-03    0.3158E-03    0.1156E-06
  3567.74    0.3293E-03    0.3291E-03    0.1205E-06
  3570.07    0.3435E-03    0.3434E-03    0.1257E-06
  3572.39    0.3587E-03    0.3586E-03    0.1312E-06
  3574.72    0.3750E-03    0.3749E-03    0.1372E-06
  3577.04    0.3924E-03    0.3923E-03    0.1436E-06
  3579.37    0.4111E-03    0.4110E-03    0.1504E-06
  3581.69    0.4312E-03    0.4310E-03    0.1577E-06
  3584.02    0.4527E-03    0.4526E-03    0.1656E-06
  3586.34    0.4760E-03    0.4758E-03    0.1741E-06
  3588.66    0.5011E-03    0.5009E-03    0.1833E-06
  3590.99    0.5282E-03    0.5280E-03    0.1933E-06
  3593.31    0.5577E-03    0.5575E-03    0.2040E-06
  3595.64    0.5897E-03    0.5895E-03    0.2157E-06
  3597.96    0.6246E-03    0.6244E-03    0.2285E-06
  3600.29    0.6627E-03    0.6624E-03    0.2424E-06
  3602.61    0.7044E-03    0.7041E-03    0.2577E-06
  3604.94    0.7502E-03    0.7499E-03    0.2745E-06
  3607.26    0.8007E-03    0.8004E-03    0.2929E-06
  3609.59    0.8564E-03    0.8561E-03    0.3133E-06
  3611.91    0.9183E-03    0.9179E-03    0.3359E-06
  3614.24    0.9871E-03    0.9867E-03    0.3611E-06
  3616.56    0.1064E-02    0.1064E-02    0.3892E-06
  3618.89    0.1150E-02    0.1150E-02    0.4207E-06
  3621.21    0.1247E-02    0.1247E-02    0.4563E-06
  3623.54    0.1357E-02    0.1357E-02    0.4965E-06
  3625.86    0.1482E-02    0.1482E-02    0.5423E-06
  3628.19    0.1626E-02    0.1625E-02    0.5947E-06
  3630.51    0.1791E-02    0.1790E-02    0.6550E-06
  3632.83    0.1982E-02    0.1981E-02    0.7249E-06
  3635.16    0.2205E-02    0.2204E-02    0.8065E-06
  3637.48    0.2467E-02    0.2466E-02    0.9024E-06
  3639.81    0.2778E-02    0.2777E-02    0.1016E-05
  3642.13    0.3151E-02    0.3149E-02    0.1152E-05
  3644.46    0.3601E-02    0.3599E-02    0.1317E-05
  3646.78    0.4151E-02    0.4150E-02    0.1518E-05
  3649.11    0.4832E-02    0.4830E-02    0.1767E-05
  3651.43    0.5684E-02    0.5682E-02    0.2079E-05
  3653.76    0.6765E-02    0.6762E-02    0.2474E-05
  3656.08    0.8155E-02    0.8152E-02    0.2983E-05
  3658.41    0.9963E-02    0.9959E-02    0.3644E-05
  3660.73    0.1233E-01    0.1233E-01    0.4512E-05
  3663.06    0.1545E-01    0.1544E-01    0.5650E-05
  3665.38    0.1947E-01    0.1946E-01    0.7120E-05
  3667.71    0.2439E-01    0.2439E-01    0.8923E-05
  3670.03    0.2976E-01    0.2975E-01    0.1088E-04
  3672.36    0.3423E-01    0.3422E-01    0.1252E-04
  3674.68    0.3594E-01    0.3593E-01    0.1315E-04
  3677.01    0.3397E-01    0.3396E-01    0.1243E-04
  3679.33    0.2937E-01    0.2936E-01    0.1074E-04
  3681.65    0.2401E-01    0.2400E-01    0.8784E-05
  3683.98    0.1915E-01    0.1914E-01    0.7005E-05
  3686.30    0.1521E-01    0.1520E-01    0.5564E-05
  3688.63    0.1217E-01    0.1216E-01    0.4450E-05
  3690.95    0.9849E-02    0.9845E-02    0.3603E-05
  3693.28    0.8084E-02    0.8081E-02    0.2957E-05
  3695.60    0.6727E-02    0.6725E-02    0.2461E-05
  3697.93    0.5673E-02    0.5671E-02    0.2075E-05
  3700.25    0.4843E-02    0.4841E-02    0.1771E-05
  3702.58    0.4181E-02    0.4179E-02    0.1529E-05
  3704.90    0.3647E-02    0.3646E-02    0.1334E-05
  3707.23    0.3212E-02    0.3211E-02    0.1175E-05
  3709.55    0.2854E-02    0.2853E-02    0.1044E-05
  3711.88    0.2557E-02    0.2556E-02    0.9355E-06
  3714.20    0.2309E-02    0.2308E-02    0.8447E-06
  3716.53    0.2100E-02    0.2099E-02    0.7684E-06
  3718.85    0.1923E-02    0.1923E-02    0.7039E-06
  3721.18    0.1774E-02    0.1773E-02    0.6493E-06
  3723.50    0.1647E-02    0.1647E-02    0.6030E-06
  3725.82    0.1540E-02    0.1540E-02    0.5638E-06
  3728.15    0.1450E-02    0.1449E-02    0.5307E-06
  3730.47    0.1374E-02    0.1374E-02    0.5031E-06
  3732.80    0.1312E-02    0.1311E-02    0.4803E-06
  3735.12    0.1261E-02    0.1261E-02    0.4620E-06
  3737.45    0.1222E-02    0.1222E-02    0.4478E-06
  3739.77    0.1195E-02    0.1194E-02    0.4376E-06
  3742.10    0.1178E-02    0.1177E-02    0.4315E-06
  3744.42    0.1172E-02    0.1171E-02    0.4294E-06
  3746.75    0.1178E-02    0.1177E-02    0.4317E-06
  3749.07    0.1196E-02    0.1196E-02    0.4387E-06
  3751.40    0.1230E-02    0.1229E-02    0.4511E-06
  3753.72    0.1280E-02    0.1280E-02    0.4696E-06
  3756.05    0.1351E-02    0.1350E-02    0.4957E-06
  3758.37    0.1446E-02    0.1446E-02    0.5308E-06
  3760.70    0.1573E-02    0.1572E-02    0.5775E-06
  3763.02    0.1740E-02    0.1739E-02    0.6390E-06
  3765.35    0.1960E-02    0.1959E-02    0.7197E-06
  3767.67    0.2249E-02    0.2248E-02    0.8263E-06
  3770.00    0.2633E-02    0.2632E-02    0.9673E-06
  3772.32    0.3143E-02    0.3142E-02    0.1155E-05
  3774.64    0.3820E-02    0.3818E-02    0.1404E-05
  3776.97    0.4705E-02    0.4703E-02    0.1730E-05
  3779.29    0.5814E-02    0.5812E-02    0.2137E-05
  3781.62    0.7068E-02    0.7065E-02    0.2598E-05
  3783.94    0.8202E-02    0.8199E-02    0.3016E-05
  3786.27    0.8779E-02    0.8776E-02    0.3228E-05
  3788.59    0.8493E-02    0.8490E-02    0.3123E-05
  3790.92    0.7494E-02    0.7491E-02    0.2755E-05
  3793.24    0.6219E-02    0.6217E-02    0.2286E-05
  3795.57    0.5013E-02    0.5011E-02    0.1843E-05
  3797.89    0.4017E-02    0.4015E-02    0.1477E-05
  3800.22    0.3240E-02    0.3238E-02    0.1191E-05
  3802.54    0.2645E-02    0.2644E-02    0.9723E-06
  3804.87    0.2191E-02    0.2190E-02    0.8053E-06
  3807.19    0.1841E-02    0.1841E-02    0.6767E-06
  3809.52    0.1569E-02    0.1568E-02    0.5764E-06
  3811.84    0.1353E-02    0.1352E-02    0.4971E-06
  3814.17    0.1180E-02    0.1180E-02    0.4336E-06
  3816.49    0.1040E-02    0.1039E-02    0.3820E-06
  3818.81    0.9244E-03    0.9241E-03    0.3396E-06
  3821.14    0.8284E-03    0.8281E-03    0.3043E-06
  3823.46    0.7478E-03    0.7475E-03    0.2747E-06
  3825.79    0.6793E-03    0.6791E-03    0.2495E-06
  3828.11    0.6207E-03    0.6205E-03    0.2280E-06
  3830.44    0.5701E-03    0.5699E-03    0.2093E-06
  3832.76    0.5261E-03    0.5259E-03    0.1932E-06
  3835.09    0.4875E-03    0.4873E-03    0.1790E-06
  3837.41    0.4535E-03    0.4534E-03    0.1665E-06
  3839.74    0.4234E-03    0.4232E-03    0.1554E-06
  3842.06    0.3965E-03    0.3963E-03    0.1455E-06
  3844.39    0.3724E-03    0.3723E-03    0.1367E-06
  3846.71    0.3507E-03    0.3506E-03    0.1287E-06
  3849.04    0.3311E-03    0.3310E-03    0.1215E-06
