
 ------------------------------------------------------------
     normal          Raman Scattering Plot
 ------------------------------------------------------------
 Excitation wavelength  514.50 nm
 Convolution lineshape is lorentzian  
 FWHM   20.00  1/cm
 ------------------------------------------------------------
 ------------------------------------------------------------
 # of frequencies :     3
 ------------------------------------------------------------
 #  freq [ 1/cm]  S [Ang**4/amu]
 ------------------------------------------------------------
   1  1591.48        0.8353
   2  3680.25      115.5960
   3  3783.91   259483.9293
 ------------------------------------------------------------
  1533.79    0.1541E-02
  1536.11    0.1546E-02
  1538.42    0.1552E-02
  1540.74    0.1558E-02
  1543.05    0.1565E-02
  1545.37    0.1572E-02
  1547.68    0.1580E-02
  1550.00    0.1588E-02
  1552.31    0.1597E-02
  1554.63    0.1608E-02
  1556.94    0.1620E-02
  1559.26    0.1633E-02
  1561.57    0.1649E-02
  1563.89    0.1668E-02
  1566.20    0.1690E-02
  1568.52    0.1717E-02
  1570.83    0.1751E-02
  1573.15    0.1793E-02
  1575.46    0.1847E-02
  1577.77    0.1916E-02
  1580.09    0.2007E-02
  1582.40    0.2122E-02
  1584.72    0.2262E-02
  1587.03    0.2412E-02
  1589.35    0.2536E-02
  1591.66    0.2582E-02
  1593.98    0.2527E-02
  1596.29    0.2403E-02
  1598.61    0.2259E-02
  1600.92    0.2129E-02
  1603.24    0.2025E-02
  1605.55    0.1945E-02
  1607.87    0.1885E-02
  1610.18    0.1840E-02
  1612.50    0.1806E-02
  1614.81    0.1780E-02
  1617.13    0.1761E-02
  1619.44    0.1746E-02
  1621.75    0.1735E-02
  1624.07    0.1726E-02
  1626.38    0.1719E-02
  1628.70    0.1714E-02
  1631.01    0.1711E-02
  1633.33    0.1708E-02
  1635.64    0.1707E-02
  1637.96    0.1706E-02
  1640.27    0.1706E-02
  1642.59    0.1706E-02
  1644.90    0.1706E-02
  1647.22    0.1707E-02
  1649.53    0.1709E-02
  1651.85    0.1710E-02
  1654.16    0.1712E-02
  1656.48    0.1714E-02
  1658.79    0.1716E-02
  1661.11    0.1718E-02
  1663.42    0.1721E-02
  1665.73    0.1724E-02
  1668.05    0.1726E-02
  1670.36    0.1729E-02
  1672.68    0.1732E-02
  1674.99    0.1735E-02
  1677.31    0.1738E-02
  1679.62    0.1741E-02
  1681.94    0.1744E-02
  1684.25    0.1748E-02
  1686.57    0.1751E-02
  1688.88    0.1754E-02
  1691.20    0.1758E-02
  1693.51    0.1761E-02
  1695.83    0.1764E-02
  1698.14    0.1768E-02
  1700.46    0.1772E-02
  1702.77    0.1775E-02
  1705.09    0.1779E-02
  1707.40    0.1782E-02
  1709.72    0.1786E-02
  1712.03    0.1790E-02
  1714.34    0.1794E-02
  1716.66    0.1797E-02
  1718.97    0.1801E-02
  1721.29    0.1805E-02
  1723.60    0.1809E-02
  1725.92    0.1813E-02
  1728.23    0.1816E-02
  1730.55    0.1820E-02
  1732.86    0.1824E-02
  1735.18    0.1828E-02
  1737.49    0.1832E-02
  1739.81    0.1836E-02
  1742.12    0.1840E-02
  1744.44    0.1844E-02
  1746.75    0.1848E-02
  1749.07    0.1852E-02
  1751.38    0.1857E-02
  1753.70    0.1861E-02
  1756.01    0.1865E-02
  1758.32    0.1869E-02
  1760.64    0.1873E-02
  1762.95    0.1877E-02
  1765.27    0.1882E-02
  1767.58    0.1886E-02
  1769.90    0.1890E-02
  1772.21    0.1894E-02
  1774.53    0.1899E-02
  1776.84    0.1903E-02
  1779.16    0.1907E-02
  1781.47    0.1912E-02
  1783.79    0.1916E-02
  1786.10    0.1920E-02
  1788.42    0.1925E-02
  1790.73    0.1929E-02
  1793.05    0.1934E-02
  1795.36    0.1938E-02
  1797.68    0.1942E-02
  1799.99    0.1947E-02
  1802.30    0.1951E-02
  1804.62    0.1956E-02
  1806.93    0.1960E-02
  1809.25    0.1965E-02
  1811.56    0.1970E-02
  1813.88    0.1974E-02
  1816.19    0.1979E-02
  1818.51    0.1983E-02
  1820.82    0.1988E-02
  1823.14    0.1993E-02
  1825.45    0.1997E-02
  1827.77    0.2002E-02
  1830.08    0.2007E-02
  1832.40    0.2011E-02
  1834.71    0.2016E-02
  1837.03    0.2021E-02
  1839.34    0.2026E-02
  1841.66    0.2031E-02
  1843.97    0.2035E-02
  1846.28    0.2040E-02
  1848.60    0.2045E-02
  1850.91    0.2050E-02
  1853.23    0.2055E-02
  1855.54    0.2060E-02
  1857.86    0.2065E-02
  1860.17    0.2070E-02
  1862.49    0.2075E-02
  1864.80    0.2080E-02
  1867.12    0.2085E-02
  1869.43    0.2090E-02
  1871.75    0.2095E-02
  1874.06    0.2100E-02
  1876.38    0.2105E-02
  1878.69    0.2110E-02
  1881.01    0.2115E-02
  1883.32    0.2120E-02
  1885.64    0.2125E-02
  1887.95    0.2130E-02
  1890.26    0.2136E-02
  1892.58    0.2141E-02
  1894.89    0.2146E-02
  1897.21    0.2151E-02
  1899.52    0.2157E-02
  1901.84    0.2162E-02
  1904.15    0.2167E-02
  1906.47    0.2172E-02
  1908.78    0.2178E-02
  1911.10    0.2183E-02
  1913.41    0.2189E-02
  1915.73    0.2194E-02
  1918.04    0.2199E-02
  1920.36    0.2205E-02
  1922.67    0.2210E-02
  1924.99    0.2216E-02
  1927.30    0.2221E-02
  1929.62    0.2227E-02
  1931.93    0.2232E-02
  1934.25    0.2238E-02
  1936.56    0.2244E-02
  1938.87    0.2249E-02
  1941.19    0.2255E-02
  1943.50    0.2261E-02
  1945.82    0.2266E-02
  1948.13    0.2272E-02
  1950.45    0.2278E-02
  1952.76    0.2283E-02
  1955.08    0.2289E-02
  1957.39    0.2295E-02
  1959.71    0.2301E-02
  1962.02    0.2307E-02
  1964.34    0.2312E-02
  1966.65    0.2318E-02
  1968.97    0.2324E-02
  1971.28    0.2330E-02
  1973.60    0.2336E-02
  1975.91    0.2342E-02
  1978.23    0.2348E-02
  1980.54    0.2354E-02
  1982.85    0.2360E-02
  1985.17    0.2366E-02
  1987.48    0.2372E-02
  1989.80    0.2378E-02
  1992.11    0.2385E-02
  1994.43    0.2391E-02
  1996.74    0.2397E-02
  1999.06    0.2403E-02
  2001.37    0.2409E-02
  2003.69    0.2416E-02
  2006.00    0.2422E-02
  2008.32    0.2428E-02
  2010.63    0.2435E-02
  2012.95    0.2441E-02
  2015.26    0.2447E-02
  2017.58    0.2454E-02
  2019.89    0.2460E-02
  2022.21    0.2467E-02
  2024.52    0.2473E-02
  2026.83    0.2480E-02
  2029.15    0.2486E-02
  2031.46    0.2493E-02
  2033.78    0.2499E-02
  2036.09    0.2506E-02
  2038.41    0.2513E-02
  2040.72    0.2519E-02
  2043.04    0.2526E-02
  2045.35    0.2533E-02
  2047.67    0.2539E-02
  2049.98    0.2546E-02
  2052.30    0.2553E-02
  2054.61    0.2560E-02
  2056.93    0.2567E-02
  2059.24    0.2574E-02
  2061.56    0.2581E-02
  2063.87    0.2587E-02
  2066.19    0.2594E-02
  2068.50    0.2601E-02
  2070.81    0.2608E-02
  2073.13    0.2616E-02
  2075.44    0.2623E-02
  2077.76    0.2630E-02
  2080.07    0.2637E-02
  2082.39    0.2644E-02
  2084.70    0.2651E-02
  2087.02    0.2659E-02
  2089.33    0.2666E-02
  2091.65    0.2673E-02
  2093.96    0.2680E-02
  2096.28    0.2688E-02
  2098.59    0.2695E-02
  2100.91    0.2703E-02
  2103.22    0.2710E-02
  2105.54    0.2717E-02
  2107.85    0.2725E-02
  2110.17    0.2733E-02
  2112.48    0.2740E-02
  2114.79    0.2748E-02
  2117.11    0.2755E-02
  2119.42    0.2763E-02
  2121.74    0.2771E-02
  2124.05    0.2778E-02
  2126.37    0.2786E-02
  2128.68    0.2794E-02
  2131.00    0.2802E-02
  2133.31    0.2810E-02
  2135.63    0.2818E-02
  2137.94    0.2825E-02
  2140.26    0.2833E-02
  2142.57    0.2841E-02
  2144.89    0.2849E-02
  2147.20    0.2858E-02
  2149.52    0.2866E-02
  2151.83    0.2874E-02
  2154.15    0.2882E-02
  2156.46    0.2890E-02
  2158.77    0.2898E-02
  2161.09    0.2907E-02
  2163.40    0.2915E-02
  2165.72    0.2923E-02
  2168.03    0.2932E-02
  2170.35    0.2940E-02
  2172.66    0.2949E-02
  2174.98    0.2957E-02
  2177.29    0.2966E-02
  2179.61    0.2974E-02
  2181.92    0.2983E-02
  2184.24    0.2991E-02
  2186.55    0.3000E-02
  2188.87    0.3009E-02
  2191.18    0.3017E-02
  2193.50    0.3026E-02
  2195.81    0.3035E-02
  2198.13    0.3044E-02
  2200.44    0.3053E-02
  2202.76    0.3062E-02
  2205.07    0.3071E-02
  2207.38    0.3080E-02
  2209.70    0.3089E-02
  2212.01    0.3098E-02
  2214.33    0.3107E-02
  2216.64    0.3116E-02
  2218.96    0.3125E-02
  2221.27    0.3135E-02
  2223.59    0.3144E-02
  2225.90    0.3153E-02
  2228.22    0.3163E-02
  2230.53    0.3172E-02
  2232.85    0.3182E-02
  2235.16    0.3191E-02
  2237.48    0.3201E-02
  2239.79    0.3210E-02
  2242.11    0.3220E-02
  2244.42    0.3230E-02
  2246.74    0.3239E-02
  2249.05    0.3249E-02
  2251.36    0.3259E-02
  2253.68    0.3269E-02
  2255.99    0.3279E-02
  2258.31    0.3289E-02
  2260.62    0.3299E-02
  2262.94    0.3309E-02
  2265.25    0.3319E-02
  2267.57    0.3329E-02
  2269.88    0.3339E-02
  2272.20    0.3349E-02
  2274.51    0.3360E-02
  2276.83    0.3370E-02
  2279.14    0.3380E-02
  2281.46    0.3391E-02
  2283.77    0.3401E-02
  2286.09    0.3412E-02
  2288.40    0.3422E-02
  2290.72    0.3433E-02
  2293.03    0.3444E-02
  2295.34    0.3454E-02
  2297.66    0.3465E-02
  2299.97    0.3476E-02
  2302.29    0.3487E-02
  2304.60    0.3498E-02
  2306.92    0.3509E-02
  2309.23    0.3520E-02
  2311.55    0.3531E-02
  2313.86    0.3542E-02
  2316.18    0.3553E-02
  2318.49    0.3564E-02
  2320.81    0.3576E-02
  2323.12    0.3587E-02
  2325.44    0.3598E-02
  2327.75    0.3610E-02
  2330.07    0.3621E-02
  2332.38    0.3633E-02
  2334.70    0.3644E-02
  2337.01    0.3656E-02
  2339.32    0.3668E-02
  2341.64    0.3680E-02
  2343.95    0.3692E-02
  2346.27    0.3703E-02
  2348.58    0.3715E-02
  2350.90    0.3727E-02
  2353.21    0.3739E-02
  2355.53    0.3752E-02
  2357.84    0.3764E-02
  2360.16    0.3776E-02
  2362.47    0.3788E-02
  2364.79    0.3801E-02
  2367.10    0.3813E-02
  2369.42    0.3826E-02
  2371.73    0.3838E-02
  2374.05    0.3851E-02
  2376.36    0.3863E-02
  2378.68    0.3876E-02
  2380.99    0.3889E-02
  2383.30    0.3902E-02
  2385.62    0.3915E-02
  2387.93    0.3928E-02
  2390.25    0.3941E-02
  2392.56    0.3954E-02
  2394.88    0.3967E-02
  2397.19    0.3980E-02
  2399.51    0.3994E-02
  2401.82    0.4007E-02
  2404.14    0.4021E-02
  2406.45    0.4034E-02
  2408.77    0.4048E-02
  2411.08    0.4061E-02
  2413.40    0.4075E-02
  2415.71    0.4089E-02
  2418.03    0.4103E-02
  2420.34    0.4117E-02
  2422.66    0.4131E-02
  2424.97    0.4145E-02
  2427.29    0.4159E-02
  2429.60    0.4173E-02
  2431.91    0.4187E-02
  2434.23    0.4202E-02
  2436.54    0.4216E-02
  2438.86    0.4231E-02
  2441.17    0.4245E-02
  2443.49    0.4260E-02
  2445.80    0.4275E-02
  2448.12    0.4290E-02
  2450.43    0.4305E-02
  2452.75    0.4319E-02
  2455.06    0.4335E-02
  2457.38    0.4350E-02
  2459.69    0.4365E-02
  2462.01    0.4380E-02
  2464.32    0.4396E-02
  2466.64    0.4411E-02
  2468.95    0.4427E-02
  2471.27    0.4442E-02
  2473.58    0.4458E-02
  2475.89    0.4474E-02
  2478.21    0.4490E-02
  2480.52    0.4506E-02
  2482.84    0.4522E-02
  2485.15    0.4538E-02
  2487.47    0.4554E-02
  2489.78    0.4570E-02
  2492.10    0.4587E-02
  2494.41    0.4603E-02
  2496.73    0.4620E-02
  2499.04    0.4636E-02
  2501.36    0.4653E-02
  2503.67    0.4670E-02
  2505.99    0.4687E-02
  2508.30    0.4704E-02
  2510.62    0.4721E-02
  2512.93    0.4738E-02
  2515.25    0.4756E-02
  2517.56    0.4773E-02
  2519.87    0.4790E-02
  2522.19    0.4808E-02
  2524.50    0.4826E-02
  2526.82    0.4843E-02
  2529.13    0.4861E-02
  2531.45    0.4879E-02
  2533.76    0.4897E-02
  2536.08    0.4916E-02
  2538.39    0.4934E-02
  2540.71    0.4952E-02
  2543.02    0.4971E-02
  2545.34    0.4989E-02
  2547.65    0.5008E-02
  2549.97    0.5027E-02
  2552.28    0.5046E-02
  2554.60    0.5065E-02
  2556.91    0.5084E-02
  2559.23    0.5103E-02
  2561.54    0.5123E-02
  2563.85    0.5142E-02
  2566.17    0.5162E-02
  2568.48    0.5181E-02
  2570.80    0.5201E-02
  2573.11    0.5221E-02
  2575.43    0.5241E-02
  2577.74    0.5261E-02
  2580.06    0.5281E-02
  2582.37    0.5302E-02
  2584.69    0.5322E-02
  2587.00    0.5343E-02
  2589.32    0.5364E-02
  2591.63    0.5384E-02
  2593.95    0.5405E-02
  2596.26    0.5426E-02
  2598.58    0.5448E-02
  2600.89    0.5469E-02
  2603.21    0.5490E-02
  2605.52    0.5512E-02
  2607.83    0.5534E-02
  2610.15    0.5556E-02
  2612.46    0.5578E-02
  2614.78    0.5600E-02
  2617.09    0.5622E-02
  2619.41    0.5644E-02
  2621.72    0.5667E-02
  2624.04    0.5689E-02
  2626.35    0.5712E-02
  2628.67    0.5735E-02
  2630.98    0.5758E-02
  2633.30    0.5781E-02
  2635.61    0.5805E-02
  2637.93    0.5828E-02
  2640.24    0.5852E-02
  2642.56    0.5876E-02
  2644.87    0.5899E-02
  2647.19    0.5923E-02
  2649.50    0.5948E-02
  2651.82    0.5972E-02
  2654.13    0.5997E-02
  2656.44    0.6021E-02
  2658.76    0.6046E-02
  2661.07    0.6071E-02
  2663.39    0.6096E-02
  2665.70    0.6121E-02
  2668.02    0.6147E-02
  2670.33    0.6172E-02
  2672.65    0.6198E-02
  2674.96    0.6224E-02
  2677.28    0.6250E-02
  2679.59    0.6276E-02
  2681.91    0.6303E-02
  2684.22    0.6329E-02
  2686.54    0.6356E-02
  2688.85    0.6383E-02
  2691.17    0.6410E-02
  2693.48    0.6437E-02
  2695.80    0.6465E-02
  2698.11    0.6492E-02
  2700.42    0.6520E-02
  2702.74    0.6548E-02
  2705.05    0.6576E-02
  2707.37    0.6604E-02
  2709.68    0.6633E-02
  2712.00    0.6661E-02
  2714.31    0.6690E-02
  2716.63    0.6719E-02
  2718.94    0.6749E-02
  2721.26    0.6778E-02
  2723.57    0.6808E-02
  2725.89    0.6837E-02
  2728.20    0.6867E-02
  2730.52    0.6898E-02
  2732.83    0.6928E-02
  2735.15    0.6959E-02
  2737.46    0.6990E-02
  2739.78    0.7021E-02
  2742.09    0.7052E-02
  2744.40    0.7083E-02
  2746.72    0.7115E-02
  2749.03    0.7147E-02
  2751.35    0.7179E-02
  2753.66    0.7211E-02
  2755.98    0.7244E-02
  2758.29    0.7276E-02
  2760.61    0.7309E-02
  2762.92    0.7342E-02
  2765.24    0.7376E-02
  2767.55    0.7409E-02
  2769.87    0.7443E-02
  2772.18    0.7477E-02
  2774.50    0.7512E-02
  2776.81    0.7546E-02
  2779.13    0.7581E-02
  2781.44    0.7616E-02
  2783.76    0.7652E-02
  2786.07    0.7687E-02
  2788.38    0.7723E-02
  2790.70    0.7759E-02
  2793.01    0.7795E-02
  2795.33    0.7832E-02
  2797.64    0.7869E-02
  2799.96    0.7906E-02
  2802.27    0.7943E-02
  2804.59    0.7980E-02
  2806.90    0.8018E-02
  2809.22    0.8056E-02
  2811.53    0.8095E-02
  2813.85    0.8134E-02
  2816.16    0.8173E-02
  2818.48    0.8212E-02
  2820.79    0.8251E-02
  2823.11    0.8291E-02
  2825.42    0.8331E-02
  2827.74    0.8372E-02
  2830.05    0.8412E-02
  2832.36    0.8453E-02
  2834.68    0.8494E-02
  2836.99    0.8536E-02
  2839.31    0.8578E-02
  2841.62    0.8620E-02
  2843.94    0.8663E-02
  2846.25    0.8705E-02
  2848.57    0.8749E-02
  2850.88    0.8792E-02
  2853.20    0.8836E-02
  2855.51    0.8880E-02
  2857.83    0.8924E-02
  2860.14    0.8969E-02
  2862.46    0.9014E-02
  2864.77    0.9060E-02
  2867.09    0.9106E-02
  2869.40    0.9152E-02
  2871.72    0.9198E-02
  2874.03    0.9245E-02
  2876.35    0.9292E-02
  2878.66    0.9340E-02
  2880.97    0.9388E-02
  2883.29    0.9436E-02
  2885.60    0.9485E-02
  2887.92    0.9534E-02
  2890.23    0.9583E-02
  2892.55    0.9633E-02
  2894.86    0.9683E-02
  2897.18    0.9734E-02
  2899.49    0.9785E-02
  2901.81    0.9836E-02
  2904.12    0.9888E-02
  2906.44    0.9940E-02
  2908.75    0.9993E-02
  2911.07    0.1005E-01
  2913.38    0.1010E-01
  2915.70    0.1015E-01
  2918.01    0.1021E-01
  2920.33    0.1026E-01
  2922.64    0.1032E-01
  2924.95    0.1037E-01
  2927.27    0.1043E-01
  2929.58    0.1049E-01
  2931.90    0.1054E-01
  2934.21    0.1060E-01
  2936.53    0.1066E-01
  2938.84    0.1072E-01
  2941.16    0.1078E-01
  2943.47    0.1084E-01
  2945.79    0.1090E-01
  2948.10    0.1096E-01
  2950.42    0.1102E-01
  2952.73    0.1108E-01
  2955.05    0.1114E-01
  2957.36    0.1120E-01
  2959.68    0.1127E-01
  2961.99    0.1133E-01
  2964.31    0.1139E-01
  2966.62    0.1146E-01
  2968.93    0.1152E-01
  2971.25    0.1159E-01
  2973.56    0.1166E-01
  2975.88    0.1172E-01
  2978.19    0.1179E-01
  2980.51    0.1186E-01
  2982.82    0.1193E-01
  2985.14    0.1200E-01
  2987.45    0.1207E-01
  2989.77    0.1214E-01
  2992.08    0.1221E-01
  2994.40    0.1228E-01
  2996.71    0.1235E-01
  2999.03    0.1242E-01
  3001.34    0.1250E-01
  3003.66    0.1257E-01
  3005.97    0.1265E-01
  3008.29    0.1272E-01
  3010.60    0.1280E-01
  3012.91    0.1288E-01
  3015.23    0.1295E-01
  3017.54    0.1303E-01
  3019.86    0.1311E-01
  3022.17    0.1319E-01
  3024.49    0.1327E-01
  3026.80    0.1335E-01
  3029.12    0.1343E-01
  3031.43    0.1352E-01
  3033.75    0.1360E-01
  3036.06    0.1368E-01
  3038.38    0.1377E-01
  3040.69    0.1386E-01
  3043.01    0.1394E-01
  3045.32    0.1403E-01
  3047.64    0.1412E-01
  3049.95    0.1421E-01
  3052.27    0.1430E-01
  3054.58    0.1439E-01
  3056.89    0.1448E-01
  3059.21    0.1457E-01
  3061.52    0.1467E-01
  3063.84    0.1476E-01
  3066.15    0.1486E-01
  3068.47    0.1495E-01
  3070.78    0.1505E-01
  3073.10    0.1515E-01
  3075.41    0.1525E-01
  3077.73    0.1535E-01
  3080.04    0.1545E-01
  3082.36    0.1555E-01
  3084.67    0.1565E-01
  3086.99    0.1576E-01
  3089.30    0.1586E-01
  3091.62    0.1597E-01
  3093.93    0.1608E-01
  3096.25    0.1618E-01
  3098.56    0.1629E-01
  3100.88    0.1640E-01
  3103.19    0.1652E-01
  3105.50    0.1663E-01
  3107.82    0.1674E-01
  3110.13    0.1686E-01
  3112.45    0.1698E-01
  3114.76    0.1709E-01
  3117.08    0.1721E-01
  3119.39    0.1733E-01
  3121.71    0.1745E-01
  3124.02    0.1758E-01
  3126.34    0.1770E-01
  3128.65    0.1783E-01
  3130.97    0.1795E-01
  3133.28    0.1808E-01
  3135.60    0.1821E-01
  3137.91    0.1834E-01
  3140.23    0.1847E-01
  3142.54    0.1861E-01
  3144.86    0.1874E-01
  3147.17    0.1888E-01
  3149.48    0.1901E-01
  3151.80    0.1915E-01
  3154.11    0.1930E-01
  3156.43    0.1944E-01
  3158.74    0.1958E-01
  3161.06    0.1973E-01
  3163.37    0.1988E-01
  3165.69    0.2002E-01
  3168.00    0.2018E-01
  3170.32    0.2033E-01
  3172.63    0.2048E-01
  3174.95    0.2064E-01
  3177.26    0.2080E-01
  3179.58    0.2096E-01
  3181.89    0.2112E-01
  3184.21    0.2128E-01
  3186.52    0.2145E-01
  3188.84    0.2161E-01
  3191.15    0.2178E-01
  3193.46    0.2195E-01
  3195.78    0.2213E-01
  3198.09    0.2230E-01
  3200.41    0.2248E-01
  3202.72    0.2266E-01
  3205.04    0.2284E-01
  3207.35    0.2302E-01
  3209.67    0.2321E-01
  3211.98    0.2340E-01
  3214.30    0.2359E-01
  3216.61    0.2378E-01
  3218.93    0.2398E-01
  3221.24    0.2417E-01
  3223.56    0.2437E-01
  3225.87    0.2458E-01
  3228.19    0.2478E-01
  3230.50    0.2499E-01
  3232.82    0.2520E-01
  3235.13    0.2541E-01
  3237.44    0.2563E-01
  3239.76    0.2585E-01
  3242.07    0.2607E-01
  3244.39    0.2629E-01
  3246.70    0.2652E-01
  3249.02    0.2675E-01
  3251.33    0.2698E-01
  3253.65    0.2722E-01
  3255.96    0.2746E-01
  3258.28    0.2770E-01
  3260.59    0.2794E-01
  3262.91    0.2819E-01
  3265.22    0.2845E-01
  3267.54    0.2870E-01
  3269.85    0.2896E-01
  3272.17    0.2922E-01
  3274.48    0.2949E-01
  3276.80    0.2976E-01
  3279.11    0.3003E-01
  3281.42    0.3031E-01
  3283.74    0.3059E-01
  3286.05    0.3088E-01
  3288.37    0.3116E-01
  3290.68    0.3146E-01
  3293.00    0.3175E-01
  3295.31    0.3206E-01
  3297.63    0.3236E-01
  3299.94    0.3267E-01
  3302.26    0.3299E-01
  3304.57    0.3331E-01
  3306.89    0.3363E-01
  3309.20    0.3396E-01
  3311.52    0.3429E-01
  3313.83    0.3463E-01
  3316.15    0.3497E-01
  3318.46    0.3532E-01
  3320.78    0.3568E-01
  3323.09    0.3604E-01
  3325.41    0.3640E-01
  3327.72    0.3677E-01
  3330.03    0.3715E-01
  3332.35    0.3753E-01
  3334.66    0.3792E-01
  3336.98    0.3831E-01
  3339.29    0.3871E-01
  3341.61    0.3912E-01
  3343.92    0.3953E-01
  3346.24    0.3995E-01
  3348.55    0.4037E-01
  3350.87    0.4081E-01
  3353.18    0.4125E-01
  3355.50    0.4169E-01
  3357.81    0.4215E-01
  3360.13    0.4261E-01
  3362.44    0.4308E-01
  3364.76    0.4355E-01
  3367.07    0.4404E-01
  3369.39    0.4453E-01
  3371.70    0.4503E-01
  3374.01    0.4554E-01
  3376.33    0.4606E-01
  3378.64    0.4659E-01
  3380.96    0.4713E-01
  3383.27    0.4767E-01
  3385.59    0.4823E-01
  3387.90    0.4879E-01
  3390.22    0.4937E-01
  3392.53    0.4995E-01
  3394.85    0.5055E-01
  3397.16    0.5116E-01
  3399.48    0.5177E-01
  3401.79    0.5240E-01
  3404.11    0.5304E-01
  3406.42    0.5370E-01
  3408.74    0.5436E-01
  3411.05    0.5504E-01
  3413.37    0.5573E-01
  3415.68    0.5643E-01
  3417.99    0.5715E-01
  3420.31    0.5788E-01
  3422.62    0.5862E-01
  3424.94    0.5938E-01
  3427.25    0.6015E-01
  3429.57    0.6094E-01
  3431.88    0.6174E-01
  3434.20    0.6256E-01
  3436.51    0.6340E-01
  3438.83    0.6425E-01
  3441.14    0.6512E-01
  3443.46    0.6601E-01
  3445.77    0.6692E-01
  3448.09    0.6784E-01
  3450.40    0.6879E-01
  3452.72    0.6975E-01
  3455.03    0.7073E-01
  3457.35    0.7174E-01
  3459.66    0.7277E-01
  3461.97    0.7382E-01
  3464.29    0.7489E-01
  3466.60    0.7599E-01
  3468.92    0.7711E-01
  3471.23    0.7825E-01
  3473.55    0.7942E-01
  3475.86    0.8062E-01
  3478.18    0.8185E-01
  3480.49    0.8310E-01
  3482.81    0.8438E-01
  3485.12    0.8569E-01
  3487.44    0.8703E-01
  3489.75    0.8841E-01
  3492.07    0.8982E-01
  3494.38    0.9126E-01
  3496.70    0.9273E-01
  3499.01    0.9425E-01
  3501.33    0.9579E-01
  3503.64    0.9738E-01
  3505.95    0.9901E-01
  3508.27    0.1007    
  3510.58    0.1024    
  3512.90    0.1041    
  3515.21    0.1059    
  3517.53    0.1078    
  3519.84    0.1097    
  3522.16    0.1116    
  3524.47    0.1136    
  3526.79    0.1157    
  3529.10    0.1178    
  3531.42    0.1200    
  3533.73    0.1222    
  3536.05    0.1245    
  3538.36    0.1268    
  3540.68    0.1293    
  3542.99    0.1318    
  3545.31    0.1343    
  3547.62    0.1370    
  3549.93    0.1397    
  3552.25    0.1425    
  3554.56    0.1454    
  3556.88    0.1484    
  3559.19    0.1514    
  3561.51    0.1546    
  3563.82    0.1579    
  3566.14    0.1612    
  3568.45    0.1647    
  3570.77    0.1683    
  3573.08    0.1720    
  3575.40    0.1759    
  3577.71    0.1798    
  3580.03    0.1840    
  3582.34    0.1882    
  3584.66    0.1926    
  3586.97    0.1971    
  3589.29    0.2019    
  3591.60    0.2068    
  3593.92    0.2118    
  3596.23    0.2171    
  3598.54    0.2225    
  3600.86    0.2282    
  3603.17    0.2341    
  3605.49    0.2402    
  3607.80    0.2466    
  3610.12    0.2532    
  3612.43    0.2601    
  3614.75    0.2672    
  3617.06    0.2747    
  3619.38    0.2825    
  3621.69    0.2906    
  3624.01    0.2991    
  3626.32    0.3080    
  3628.64    0.3173    
  3630.95    0.3270    
  3633.27    0.3372    
  3635.58    0.3479    
  3637.90    0.3591    
  3640.21    0.3708    
  3642.52    0.3832    
  3644.84    0.3962    
  3647.15    0.4099    
  3649.47    0.4244    
  3651.78    0.4397    
  3654.10    0.4559    
  3656.41    0.4731    
  3658.73    0.4915    
  3661.04    0.5111    
  3663.36    0.5322    
  3665.67    0.5549    
  3667.99    0.5795    
  3670.30    0.6063    
  3672.62    0.6354    
  3674.93    0.6668    
  3677.25    0.6996    
  3679.56    0.7320    
  3681.88    0.7629    
  3684.19    0.7928    
  3686.50    0.8238    
  3688.82    0.8576    
  3691.13    0.8951    
  3693.45    0.9367    
  3695.76    0.9827    
  3698.08     1.033    
  3700.39     1.088    
  3702.71     1.149    
  3705.02     1.215    
  3707.34     1.287    
  3709.65     1.366    
  3711.97     1.453    
  3714.28     1.549    
  3716.60     1.655    
  3718.91     1.771    
  3721.23     1.901    
  3723.54     2.045    
  3725.86     2.206    
  3728.17     2.387    
  3730.48     2.591    
  3732.80     2.822    
  3735.11     3.085    
  3737.43     3.386    
  3739.74     3.732    
  3742.06     4.133    
  3744.37     4.601    
  3746.69     5.151    
  3749.00     5.804    
  3751.32     6.584    
  3753.63     7.526    
  3755.95     8.676    
  3758.26     10.10    
  3760.58     11.87    
  3762.89     14.12    
  3765.21     17.01    
  3767.52     20.76    
  3769.84     25.67    
  3772.15     32.11    
  3774.46     40.44    
  3776.78     50.73    
  3779.09     62.11    
  3781.41     72.01    
  3783.72     76.48    
  3786.04     73.18    
  3788.35     63.87    
  3790.67     52.50    
  3792.98     41.95    
  3795.30     33.30    
  3797.61     26.58    
  3799.93     21.45    
  3802.24     17.54    
  3804.56     14.53    
  3806.87     12.19    
  3809.19     10.35    
  3811.50     8.881    
  3813.82     7.692    
  3816.13     6.721    
  3818.45     5.917    
  3820.76     5.247    
  3823.07     4.682    
  3825.39     4.202    
  3827.70     3.791    
  3830.02     3.436    
  3832.33     3.129    
  3834.65     2.860    
  3836.96     2.625    
  3839.28     2.417    
  3841.59     2.232    
  3843.91     2.068    
  3846.22     1.921    
